time,seconds_elapsed,z,y,x
1695804835619486700,0.02248681640625,-0.07535247036516667,-0.022124591916054485,-0.227317201898247
1695804835629486800,0.03248681640625,-0.2596317639172077,-0.05673771320097148,-0.11356522357724606
1695804835639486000,0.04248583984375,-0.28074820170402526,-0.0773003895625472,-0.0668830404445529
1695804835649484800,0.05248486328125,-0.1442231774955988,-0.04633855732679367,-0.19491466933488844
1695804835659485000,0.06248486328125,0.12018588382601737,-0.13263152390122412,-0.3377984149202704
1695804835669483800,0.07248388671875,0.39968087059855456,-0.20345117314234376,-0.32266908871904015
1695804835679484000,0.08248388671875,0.5403565847456455,-0.1788032002285123,-0.16115217352993785
1695804835689483000,0.09248291015625,0.5738315688461065,-0.2382375321023166,-0.01615676955282688
1695804835699481900,0.10248193359375,0.5325292521208524,-0.22048370261639355,0.007560279186442494
1695804835709482000,0.11248193359375,0.45566170101761816,-0.16348317376077173,-0.013333674956113099
1695804835719480800,0.122480712890625,0.41411330057680606,-0.23858444584384558,0.00032974341101944446
1695804835729481000,0.13248095703125,0.43072073650658127,-0.3113428080625832,-0.01603767321780324
1695804835739479800,0.142479736328125,0.4018769193381071,-0.3534137710727751,-0.12289601956754923
1695804835749479700,0.152479736328125,0.21388065108954904,-0.40541693003252144,-0.3717957423944026
1695804835759478800,0.162478759765625,0.025291677644848822,-0.3273749283224344,-0.5230294562391936
1695804835769478000,0.172477783203125,-0.1522615225225687,-0.2413651626035571,-0.4090202152214944
1695804835779477800,0.182477783203125,-0.1797802285671234,-0.1955292941018939,-0.1004795320328325
1695804835789476900,0.192476806640625,-0.09199439308643341,-0.1941540602259338,0.10726290856264531
1695804835799476700,0.202476806640625,0.11569617119133471,-0.21347075511440633,0.16824527359604835
1695804835809475800,0.212475830078125,0.25399112768173215,-0.2746909474916756,0.10864259941801428
1695804835819475000,0.222474853515625,0.31045360413789747,-0.30915260454192756,0.04596270975172519
1695804835829474800,0.232474853515625,0.3249439017832279,-0.3619448680527508,0.05865048801973462
1695804835839474000,0.242473876953125,0.2517985860735178,-0.39300080831274387,0.062216144612058995
1695804835849474000,0.25247412109375,0.1296785193145275,-0.30565804042443634,-0.0745777596656233
1695804835859472600,0.26247265625,-0.04407061239480972,-0.30278833020702,-0.23841347319111228
1695804835869471700,0.2724716796875,-0.023866028755903244,-0.4049845299646258,-0.3601221096049994
1695804835879471900,0.282471923828125,0.13411270236968995,-0.37211861767321824,-0.45067054166682063
1695804835889470700,0.292470703125,0.2313812364667654,-0.3876104935765266,-0.42002157477252183
1695804835899470800,0.302470947265625,0.3174292883694172,-0.44258039338737726,-0.30685316849313676
1695804835909470000,0.312469970703125,0.3696563192129135,-0.4421440477967262,-0.1838585108567029
1695804835919468800,0.32246875,0.3606587737649679,-0.3210696906983852,-0.007869199005141854
1695804835929469000,0.332468994140625,0.27017770785093304,-0.18285422918498515,0.11548830059431493
1695804835939468000,0.342468017578125,0.1763648671656847,-0.15816972365304827,0.24356281877830624
1695804835949468000,0.352468017578125,0.12982348074316977,-0.12692702864930033,0.2370459842301905
1695804835959467000,0.362467041015625,0.04568506185412407,-0.0972350702188909,0.07253390581309795
1695804835969467000,0.372466796875,-0.20953180823028086,-0.0341365167491138,-0.12711078771837056
1695804835979466000,0.382466064453125,-0.4471750277012586,-0.06644611033201217,-0.2562659407459199
1695804835989464800,0.39246484375,-0.3751280286222696,-0.16944909642785785,-0.22490005775392055
1695804835999464700,0.402464599609375,-0.052362639921903605,-0.16971578454002736,-0.07181034077890217
1695804836009463800,0.4124638671875,0.21266250747144222,-0.2385541968360543,0.1343879391144961
1695804836019463700,0.422463623046875,0.33711014039516446,-0.237581260150671,0.33461547403521835
1695804836029462800,0.432462890625,0.3412999933004379,-0.2171943056821823,0.34341523188874123
1695804836039462000,0.4424619140625,0.21539573182761668,-0.24295053209885953,0.24828217545039952
1695804836049461800,0.452461669921875,-0.017559622088074683,-0.23162585887759923,0.20095460708625615
1695804836059460600,0.462460693359375,-0.14143676164746283,-0.2556378719754517,0.14802191219143568
1695804836069460700,0.472460693359375,-0.12391630252599715,-0.24478096239641306,0.11490969698876141
1695804836079459600,0.48245947265625,-0.07538754167854786,-0.2372504207611084,0.17373137685693799
1695804836089459700,0.492459716796875,-0.13244038524329663,-0.25111864098533987,0.15999920410253107
1695804836099458800,0.502458740234375,-0.1969248401135206,-0.2500070264816284,0.0858571324404329
1695804836109457700,0.512457763671875,-0.039709494575858116,-0.2753394745282829,0.09558956803418696
1695804836119457800,0.522457763671875,0.1836363194733858,-0.3395144250579178,0.18084486212395132
1695804836129456600,0.53245654296875,0.2447182724237442,-0.37459289883226154,0.32072884137146174
1695804836139456800,0.542456787109375,0.17874094864726064,-0.31333997322916984,0.49572147033587094
1695804836149456000,0.552455810546875,0.06530512360334396,-0.192016829001531,0.6685797906853258
1695804836159454700,0.562454833984375,-0.030817163068056104,-0.11318996052406728,0.648976022483781
1695804836169454800,0.572454833984375,-0.08153729647994042,-0.09785912040136754,0.5581118024710565
1695804836179454000,0.582453857421875,-0.10825053136050701,-0.1518591522667557,0.4572058617196977
1695804836189453800,0.592453857421875,-0.17708441361188887,-0.1390042007382959,0.36818405470326543
1695804836199452700,0.60245263671875,-0.43388942967057226,0.09801876794248819,0.6156754451021552
1695804836209451800,0.61245166015625,-0.4676590128034353,0.4791249211262911,1.0033873532265425
1695804836219451600,0.62245166015625,-0.5852800145775079,0.7409695387873798,0.8834158428035676
1695804836229450800,0.63245068359375,-0.8902198237299919,0.7944159553579986,0.7012371017273515
1695804836239450600,0.64245068359375,-1.0726309853225946,0.85189739959836,0.8953913080837577
1695804836249449700,0.65244970703125,-1.0908499481022358,0.8199985057082027,1.2497121840640901
1695804836259449600,0.66244970703125,-0.8572381761044263,0.7588696448761969,1.3914131496056914
1695804836269448700,0.67244873046875,-0.4827081133753061,0.6863328895188867,1.2144753779228776
1695804836279447800,0.68244775390625,-0.06190320620536804,0.6205628518175333,0.9711265672214329
1695804836289447700,0.69244775390625,0.288361599317193,0.4585060575980693,0.74248688454777
1695804836299446800,0.70244677734375,0.5684516293734312,0.15439517355039714,0.4488566241126507
1695804836309447000,0.712447021484375,0.7370780112415551,-0.18230726282671092,0.0898469327289611
1695804836319445800,0.72244580078125,0.8971803103923797,-0.4646983363669365,-0.2700591960377991
1695804836329444600,0.732444580078125,1.0411609113037585,-0.7149668633289635,-0.46114020549394186
1695804836339444700,0.74244482421875,1.0870254213780164,-0.86940755652152,-0.44506154267862436
1695804836349443600,0.752443603515625,0.9816846399843692,-0.9447253939647227,-0.3973847955506295
1695804836359443700,0.762443603515625,0.7980635180801152,-0.9071684012476354,-0.3583699321754277
1695804836369442800,0.77244287109375,0.5830208374738692,-0.905671732949093,-0.29645510859750207
1695804836379442700,0.782442626953125,0.33808687647283076,-0.9414085245016962,-0.2645361217673868
1695804836389441800,0.79244189453125,0.06802198134660721,-0.8966089402452111,-0.2627716693781316
1695804836399440600,0.802440673828125,-0.21959318351745605,-0.8289118800040334,-0.26057174818105994
1695804836409440800,0.812440673828125,-0.3535112400978803,-0.8426257864493876,-0.2489052027195692
1695804836419439900,0.82243994140625,-0.29149229855835435,-0.8966956686805934,-0.21786299872398376
1695804836429439700,0.832439697265625,-0.18901450538039205,-0.9726406250461935,-0.21103994777090845
1695804836439438800,0.84243896484375,-0.11762509342730045,-0.9781472596384584,-0.22179471214972435
1695804836449438000,0.85243798828125,-0.03433481580018997,-0.9266040463406592,-0.204539845161885
1695804836459437800,0.862437744140625,0.005371756166219711,-0.9528462296433746,-0.19190518532060086
1695804836469436700,0.872436767578125,0.03596387830674648,-0.99550755976215,-0.2297246283661574
1695804836479436500,0.8824365234375,0.029147184029221535,-0.9329127910960465,-0.3035137949373573
1695804836489435600,0.892435546875,0.018640987583994864,-0.9078335871580988,-0.26603819689340885
1695804836499434800,0.902434814453125,-0.029105682975053785,-0.8665039440345018,-0.21388401209041474
1695804836509434600,0.9124345703125,-0.2104799027353525,-0.7927616122797131,-0.21408260340243576
1695804836519433700,0.922433837890625,-0.4922855045378208,-0.7012861285008489,-0.30909583285339176
1695804836529433600,0.93243359375,-0.7630348747968674,-0.6439598748221993,-0.4125966124035418
1695804836539432700,0.9424326171875,-1.0821692135185004,-0.6818862123083322,-0.6652584642428905
1695804836549432800,0.952432861328125,-1.3895365420788526,-0.6470024573884904,-0.9103450585223734
1695804836559431700,0.962431640625,-1.4119488648951053,-0.4781686433147639,-0.7144846327699721
1695804836569430800,0.9724306640625,-1.263623512777686,-0.36679676506333053,-0.3975474387664348
1695804836579431000,0.982430908203125,-0.992203695911169,-0.3393841497417539,-0.185224027056247
1695804836589429800,0.9924296875,-0.6489513994991779,-0.3159339352451265,-0.05674436213746666
1695804836599430000,1.002429931640625,-0.3526630988359451,-0.30947613740786906,0.027643428402766585
1695804836609428700,1.0124287109375,-0.11459668551683425,-0.28643837616965173,0.07475750014670193
1695804836619427600,1.022427490234375,0.12578969518244265,-0.3326313875459134,0.05009476805515587
1695804836629427700,1.032427734375,0.27740824362635613,-0.4391803756855428,-0.13347213944382966
1695804836639426800,1.0424267578125,0.40502398519217964,-0.45529842066317794,-0.3223734667733311
1695804836649426700,1.0524267578125,0.4660825572669506,-0.4554284767836332,-0.4736621256757527
1695804836659425800,1.06242578125,0.4318231447905302,-0.5019589034207165,-0.626606954287365
1695804836669425000,1.0724248046875,0.327412922245264,-0.49158027887791395,-0.7347310097239911
1695804836679424800,1.0824248046875,0.1612888785868883,-0.4492347367100417,-0.8049268279783427
1695804836689424000,1.092423828125,-0.011911971589922904,-0.48006125212833284,-0.8806297192163764
1695804836699423700,1.102423828125,-0.13074410271942616,-0.48085795546397564,-0.970411989211291
1695804836709422800,1.1124228515625,-0.19279402391910552,-0.4265148092493415,-0.9877528539821505
1695804836719422700,1.122422607421875,-0.24074177000820635,-0.42145314194560046,-0.8121557563185692
1695804836729421800,1.132421875,-0.22531740638315675,-0.4589328316427767,-0.5625056900484487
1695804836739420700,1.142420654296875,-0.16748948679268358,-0.5661616187401115,-0.518699171949923
1695804836749420500,1.152420654296875,-0.15662030225396156,-0.6427151354581118,-0.6520441778827458
1695804836759419600,1.162419677734375,-0.2037093856871128,-0.7256900635257363,-0.7321602824531496
1695804836769419800,1.172419677734375,-0.2443962008625269,-0.8455448157012462,-0.7201634821239858
1695804836779418600,1.182418701171875,-0.12805471750497818,-0.8946445083044469,-0.6648547788128256
1695804836789417700,1.192417724609375,0.08845043686926364,-0.8993608693018555,-0.533078045110032
1695804836799417900,1.20241796875,0.4223018677294254,-0.8567448396295309,-0.312990356073901
1695804836809416700,1.212416748046875,0.8307476440638303,-0.8579840260356664,-0.1802407587509602
1695804836819416800,1.222416748046875,1.1900187628626824,-0.9322466553375124,-0.34812954705953597
1695804836829415700,1.232415771484375,1.5349229181349278,-1.0349731625795364,-0.683935399923101
1695804836839415800,1.242415771484375,1.816875819453597,-1.129178801974654,-0.9181086051959544
1695804836849415000,1.252414794921875,2.0025217251837253,-1.2174410227954386,-0.972788801345229
1695804836859413500,1.26241357421875,2.078461640048027,-1.257094111008942,-0.888134541888535
1695804836869414000,1.272413818359375,1.9451286898791789,-1.2065475805982946,-0.7951631935287267
1695804836879412700,1.282412841796875,1.637394866093993,-1.0819058864071964,-0.7215015257947146
1695804836889412600,1.29241259765625,1.254395665705204,-0.9238590584814548,-0.5518330875277518
1695804836899411700,1.30241162109375,0.8680769655048847,-0.777694391529262,-0.27585049279034135
1695804836909410800,1.312410888671875,0.5713093568921089,-0.5401218992069363,0.055142845224961635
1695804836919410700,1.32241064453125,0.3674894965678453,-0.37763416622430085,0.21623174426034092
1695804836929409800,1.332409912109375,0.28884792152941224,-0.38201369648277755,0.19027955688014625
1695804836939409700,1.34240966796875,0.3538777353227138,-0.4573115140512585,0.026071356780454514
1695804836949408800,1.35240869140625,0.5019406371116638,-0.5491217827424407,-0.14617401930242777
1695804836959407900,1.362407958984375,0.6943272492736577,-0.635235885618627,-0.25701566313467916
1695804836969407700,1.37240771484375,0.9659376202762127,-0.5956567394241691,-0.3344280617043376
1695804836979406800,1.38240673828125,1.2726152130067347,-0.6399129375189543,-0.21905936890169977
1695804836989406700,1.39240673828125,1.3204174131453037,-0.8118143955349921,0.08798355000987648
1695804836999405600,1.402405517578125,1.1751900270432234,-0.8912892065271735,0.20315083848889917
1695804837009406000,1.412406005859375,0.8625567407786846,-0.9409820427179336,0.09791242149118333
1695804837019404500,1.422404541015625,0.42873979182243344,-1.1327318182811141,-0.09451130781080573
1695804837029403600,1.432403564453125,0.029971359893679616,-1.3256973993748427,-0.3586669788932428
1695804837039403800,1.44240380859375,-0.228366272559762,-1.3382272106021642,-0.6002434096273035
1695804837049402600,1.452402587890625,-0.42070027775168417,-1.368038119237125,-0.6866242736808955
1695804837059402800,1.46240283203125,-0.5344114126056433,-1.35610188998878,-0.5642572829561308
1695804837069402000,1.472402099609375,-0.5590916803538799,-1.1484516577214001,-0.3456324695467949
1695804837079401000,1.48240087890625,-0.47888592473864555,-0.9523927867874502,-0.14041384834051132
1695804837089401000,1.492401123046875,-0.40523032141923904,-0.990098248064518,-0.09794599496722221
1695804837099400000,1.50239990234375,-0.30645839702188965,-0.9850175837993621,-0.086787362495251
1695804837109400000,1.512400146484375,-0.2716144626557827,-0.9539774256303906,-0.06383284082738683
1695804837119399200,1.522399169921875,-0.29903321545720096,-0.9281076558366418,-0.14257323659779503
1695804837129398000,1.53239794921875,-0.40711072833836076,-0.8606979611694813,-0.27785748523119835
1695804837139398100,1.542398193359375,-0.5887585043430328,-0.7213055648311972,-0.37440161404386163
1695804837149397200,1.552397216796875,-0.7221896541893482,-0.5760945453420281,-0.254442981368769
1695804837159397000,1.562397216796875,-0.7680605940043925,-0.33821780937612056,-0.13720995599897579
1695804837169396200,1.572396240234375,-0.7157938156723975,-0.1271975161537528,-0.07671497262371703
1695804837179396000,1.58239599609375,-0.4940963533520698,-0.15554010580182073,0.0049177379215601825
1695804837189395200,1.592395263671875,-0.2283265250712633,-0.2730903804272413,-0.004587236458715051
1695804837199394300,1.602394287109375,0.07345686587691307,-0.3765262049823999,-0.09889292956166901
1695804837209394200,1.612394287109375,0.23250702562630174,-0.5081745630651712,-0.15713683694135397
1695804837219393000,1.62239306640625,0.21259470293223856,-0.537213026022911,-0.13836550097595898
1695804837229393000,1.632392822265625,0.02778407898247242,-0.3890659530818462,-0.0022583368534222245
1695804837239392000,1.64239208984375,-0.2340864037722349,-0.28058365879207847,0.12730599976321683
1695804837249391000,1.65239111328125,-0.6065221245706081,-0.17650573694109917,0.08777268373817206
1695804837259391000,1.662390869140625,-0.9613310032635927,-0.09893412922173737,-0.2705252609132789
1695804837269390000,1.67239013671875,-1.1761831297338008,-0.09037468293011187,-0.7107594017017632
1695804837279390200,1.68239013671875,-1.2554115647494792,-0.10561609120368957,-1.0165010287564247
1695804837289389000,1.69238916015625,-1.2155647075295448,-0.0841755360290408,-1.1745822704084217
1695804837299388200,1.70238818359375,-1.1084306129783392,-0.013784195202589035,-1.2248229497402905
1695804837309388300,1.71238818359375,-0.9808277308940887,0.14167729240506888,-1.0389930657453834
1695804837319387100,1.72238720703125,-0.7965519444733857,0.14491700497865675,-0.673394424425438
1695804837329387300,1.73238720703125,-0.5780459716707468,0.09452069669365883,-0.3820676916923374
1695804837339386000,1.74238623046875,-0.4020201272010803,0.2162310136079788,-0.24640096481367943
1695804837349386200,1.75238623046875,-0.28658289920687674,0.2643959095790982,-0.04750898934565484
1695804837359385000,1.762385009765625,-0.16484218715429305,0.30893706209510563,0.2939113423988223
1695804837369384000,1.772384033203125,-0.11227379552721976,0.5248272994413972,0.7156937162987888
1695804837379384000,1.782384033203125,-0.17259353193342686,0.6684969347074627,1.09733229585886
1695804837389383200,1.792383056640625,-0.21005495532155036,0.7176826981589197,1.2471268437460064
1695804837399383000,1.802383056640625,-0.13428747441470623,0.6903373028546571,1.1961235825438052
1695804837409382100,1.812382080078125,0.06721826374828815,0.5748179495349526,0.9985311453670263
1695804837419381200,1.82238134765625,0.38656244582831856,0.4911205524116754,0.7528284650158137
1695804837429381000,1.832381103515625,0.6364478917568922,0.40098230858594175,0.5569925891827792
1695804837439380200,1.842380126953125,0.8268611580193043,0.3377481460377574,0.4372436354693025
1695804837449380000,1.852380126953125,0.8403612755835056,0.34989158829599615,0.35115050231590866
1695804837459379200,1.862379150390625,0.7496732889205217,0.39034137984514233,0.17408683923110366
1695804837469379000,1.872379150390625,0.5985293722510338,0.37458968396186826,-0.007365706462413072
1695804837479378200,1.882378173828125,0.38112230060100555,0.4192226064145565,-0.1075415793735534
1695804837489377000,1.892376953125,0.08372516191303729,0.46028673046976326,-0.09232523247599601
1695804837499377000,1.902376953125,-0.1827776568174362,0.5684340937167406,0.08523527421504258
1695804837509376000,1.9123759765625,-0.3772387371659279,0.7037421433508396,0.37303704769238827
1695804837519376100,1.922376220703125,-0.5176870722979307,0.7784528086811303,0.629953780497238
1695804837529375000,1.932375,-0.5596697725027799,0.899125014719367,0.8421542964801192
1695804837539374000,1.9423740234375,-0.525053217151761,0.9802125216051936,0.9214223328538238
1695804837549374200,1.952374267578125,-0.3946048825085163,0.926924875792861,0.8989614947207272
1695804837559373000,1.962373046875,-0.0535918894559145,0.8034361510291695,0.671599503832683
1695804837569373200,1.972373291015625,0.37623335951566694,0.6318386443957686,0.29884317277781663
1695804837579372300,1.982372314453125,0.7508966932356357,0.46879210848659275,0.09098777332715689
1695804837589372200,1.9923720703125,1.0351876821130515,0.43922406869679687,0.08617927706688643
1695804837599371300,2.002371337890625,1.2867121274203062,0.41601854967623947,0.17663718130104242
1695804837609370000,2.0123701171875,1.5362439376056194,0.2744993704423308,0.2562981625150889
1695804837619370200,2.022370361328125,1.6622300321429966,0.18925328257232904,0.3627879678133875
1695804837629369000,2.032369140625,1.645694492405653,0.15666004974246023,0.5472891604878009
1695804837639369000,2.042368896484375,1.5540940670728682,0.1441153332069516,0.7891323158666491
1695804837649368000,2.0523681640625,1.47663731790483,0.17350217121094463,0.96153872773014
1695804837659367200,2.0623671875,1.3689134407669306,0.1614063674867153,1.0311830495815724
1695804837669367000,2.072366943359375,1.2788473853945732,0.10211743543297051,0.9543514465745538
1695804837679366100,2.0823662109375,1.1246703846395014,0.10226794981956482,0.8217728949695825
1695804837689366000,2.092365966796875,0.9184159906446934,0.046832478323578834,0.6838057091288268
1695804837699365000,2.102365234375,0.7867553576022386,-0.08109335210472345,0.5145370838344097
1695804837709364200,2.1123642578125,0.7559984002888203,-0.06387976697534323,0.41547151025272905
1695804837719364000,2.122364013671875,0.7499322321176528,-0.07330868957787752,0.45359000931009646
1695804837729363200,2.13236328125,0.75547642224133,-0.11996990298777818,0.6113499831184744
1695804837739363000,2.142363037109375,0.7870423578500747,-0.1789835252314806,0.7030860905949026
1695804837749362200,2.152362060546875,0.8169576036423444,-0.26314064882099625,0.7157322947435081
1695804837759362300,2.1623623046875,0.8093103037595748,-0.40541123094409703,0.6260411370981485
1695804837769361000,2.17236083984375,0.7778793927073478,-0.4418842278167605,0.4327911130398512
1695804837779360000,2.182360107421875,0.7107189966261387,-0.5184662399768829,0.279777018584311
1695804837789360000,2.192360107421875,0.5963350770771503,-0.5701338833719491,0.2437361295185983
1695804837799359000,2.20235888671875,0.4822334816008806,-0.534680292674899,0.34324228647463023
1695804837809359000,2.212359130859375,0.34270167679190633,-0.484588228033483,0.48034642574526365
1695804837819358200,2.222358154296875,0.21815116801559925,-0.44212329726964233,0.6550261893682181
1695804837829357000,2.232357177734375,0.2007733322352171,-0.41301410716325043,0.8382722674150019
1695804837839357200,2.242357177734375,0.3178554048269987,-0.45405689616948364,0.9274738879777491
1695804837849356300,2.252356201171875,0.44454993989467617,-0.5513248457446694,0.9802869750808924
1695804837859356200,2.262356201171875,0.539561050453782,-0.6841767343983054,0.9753856859706341
1695804837869355300,2.272355224609375,0.5502361737251281,-0.7819359746217727,0.9076688250504433
1695804837879354000,2.28235400390625,0.43797699124515055,-0.7754775922626257,0.8457612349309027
1695804837889354200,2.292354248046875,0.2703320216298103,-0.8359861292392015,0.7201349136166274
1695804837899353000,2.30235302734375,0.09872107099294662,-0.8722858153715729,0.6417644106045365
1695804837909353000,2.31235302734375,0.01861585314273834,-0.9316410906597972,0.5384501300698146
1695804837919352000,2.32235205078125,0.06825052940547466,-1.047258351396024,0.42431949116215106
1695804837929352000,2.33235205078125,0.11430968526899814,-1.0872367260411382,0.28470841057188806
1695804837939351000,2.34235107421875,0.08907353720366955,-1.0853317692026496,0.3141568425700068
1695804837949350100,2.35235009765625,-0.026555413970351216,-1.0500327845454216,0.5576868185246363
1695804837959350000,2.36235009765625,-0.2262351057499647,-0.9918751946091652,0.790313050083816
1695804837969349000,2.37234912109375,-0.5130746100664139,-0.9533166236340999,0.8946322333447635
1695804837979349200,2.382349365234375,-0.6848796219706534,-0.9770064190402626,0.9115234546519816
1695804837989348000,2.39234814453125,-0.7172025134265423,-0.9352806162059306,0.8688321677863597
1695804837999347200,2.40234716796875,-0.7753133416116237,-0.760096190996468,0.7574922921083868
1695804838009347300,2.412347412109375,-0.8792039241969585,-0.7033274250701069,0.6250242882058024
1695804838019346000,2.422345947265625,-1.0389379745572804,-0.6853191824316978,0.5194270478330553
1695804838029346300,2.43234619140625,-1.2082704588681459,-0.41661914591789245,0.3385176691055298
1695804838039345200,2.44234521484375,-1.477250481367111,-0.12101809686645865,0.2840892922928557
1695804838049344000,2.452343994140625,-1.7709902665913104,0.05453866878673434,0.3033972924182191
1695804838059344100,2.46234423828125,-1.8891747474670408,0.08245221936777233,0.1539812407209538
1695804838069343000,2.472343017578125,-1.8061287999898195,0.0014924305148422718,-0.0700422670938773
1695804838079342800,2.4823427734375,-1.5314450128912924,-0.24810104672983288,-0.32521157627608627
1695804838089341700,2.492341796875,-1.0858411800295114,-0.4526544820256531,-0.4820202772416174
1695804838099341600,2.502341552734375,-0.6193436122208833,-0.45769247619286174,-0.4285601974718272
1695804838109340700,2.512340576171875,-0.27925708636343477,-0.4369469175450504,-0.19889036803282797
1695804838119339800,2.52233984375,-0.1076361988544464,-0.3491466151475906,0.08981484795711003
1695804838129339600,2.532339599609375,-0.11112287192642688,-0.17092384515553713,0.2579855128138326
1695804838139338800,2.5423388671875,-0.1773492020279169,-0.09402385308742522,0.27320059933606533
1695804838149338600,2.552338623046875,-0.28173136752247807,-0.04618585098311305,0.23923428805470465
1695804838159337700,2.562337646484375,-0.3860340380400419,0.05105681802034378,0.10296679140445776
1695804838169336800,2.5723369140625,-0.46238136466145513,0.09468377830088139,0.030769862460764123
1695804838179336700,2.582336669921875,-0.491958756801486,0.03694923608228564,0.014485557538131251
1695804838189335800,2.592335693359375,-0.38454175365567206,0.017814035240560768,0.0036676556620746847
1695804838199336000,2.6023359375,-0.24074177000820635,-0.03198518393412232,-0.1041054674450308
1695804838209334800,2.612334716796875,-0.06142448277771473,-0.07403861128762364,-0.3063474657270126
1695804838219333600,2.622333740234375,0.06308803207576275,-0.06257759833559394,-0.4577727748874575
1695804838229333800,2.632333740234375,0.04978314482271671,0.005373655862361193,-0.5787223365623504
1695804838239332600,2.64233251953125,-0.011756488767266272,0.08239099069982767,-0.6695465168256313
1695804838249332700,2.652332763671875,-0.11492343325316905,0.08983487696498632,-0.7058605237443
1695804838259331600,2.66233154296875,-0.25533961968123914,0.11344050121903419,-0.7471607946429402
1695804838269331700,2.672331787109375,-0.4074748854756355,0.14944836479797957,-0.696217885325849
1695804838279330800,2.682330810546875,-0.5020084416508674,0.18693696845397353,-0.5324562234172597
1695804838289329700,2.69232958984375,-0.5717302126526832,0.2721478388801217,-0.2820461690926924
1695804838299329800,2.702329833984375,-0.6169727914363146,0.39864495167955755,-0.05940338874626904
1695804838309329000,2.712328857421875,-0.6338602133512496,0.47707069201022384,0.16432159734629093
1695804838319328800,2.722328857421875,-0.5544377170681953,0.5667692292444407,0.21043580786529928
1695804838329327900,2.732327880859375,-0.3691284959465265,0.5657464620679616,0.11340146611658855
1695804838339327000,2.742326904296875,-0.1712584839373827,0.44384909814894197,-0.09990445382492616
1695804838349326800,2.752326904296875,-0.009544657936692237,0.3031985184431076,-0.33983196657449005
1695804838359325700,2.76232568359375,0.015368249523639677,0.14010346721708775,-0.44156244851648807
1695804838369325600,2.77232568359375,0.22939269299805162,0.06755904000997542,-0.1939819185294211
1695804838379324700,2.78232470703125,0.6253986744761466,0.13048603630512953,0.1537953444937244
1695804838389324500,2.792324462890625,1.0172381839245557,0.23431378278732298,0.4106682016242295
1695804838399323600,2.80232373046875,1.3027239355444908,0.4011652639374137,0.5757823741203174
1695804838409322800,2.81232275390625,1.4176789329797028,0.45391544187217947,0.7461139890037477
1695804838419322600,2.822322509765625,1.4000228647798298,0.3779673437014222,0.7545436714358628
1695804838429321700,2.83232177734375,1.3071779923439024,0.2064516701325774,0.635866657802835
1695804838439321900,2.84232177734375,1.1567729113429783,-0.014366379004716873,0.44095841820873316
1695804838449320700,2.85232080078125,0.9858125335693358,-0.20996406216770408,0.16432137815058231
1695804838459319800,2.86231982421875,0.8367313946485518,-0.3283358823090792,-0.1768968551505357
1695804838469320000,2.87231982421875,0.7759130610704421,-0.43377252529263494,-0.518141538067162
1695804838479318800,2.88231884765625,0.8445096274346112,-0.49984015770107504,-0.7224396834276616
1695804838489319000,2.89231884765625,1.0022013583123683,-0.5997191665574908,-0.6931010684795678
1695804838499317800,2.90231787109375,1.1838771913677453,-0.6193047415152192,-0.49020343756675716
1695804838509316600,2.912316650390625,1.3582494234114884,-0.5958087151154875,-0.16591606346350163
1695804838519316700,2.922316650390625,1.4409768064588306,-0.5486252313971519,0.09289481252487748
1695804838529315600,2.932315673828125,1.3741817365586757,-0.5692249518334865,0.21729150071265174
1695804838539315700,2.942315673828125,1.1884352930635214,-0.6864627995088696,0.15429456272013484
1695804838549314800,2.952314697265625,0.8634224176973104,-0.8231766242876648,-0.14163272261098026
1695804838559314700,2.962314697265625,0.5214350266546011,-0.9018667146429419,-0.41452783619444816
1695804838569313800,2.972313720703125,0.31448563613295555,-0.8605562146112322,-0.5824099025012925
1695804838579313000,2.98231298828125,0.23635551774799823,-0.7948384185537696,-0.639946839788556
1695804838589312800,2.992312744140625,0.21064064625501633,-0.7884165688127279,-0.7090495290439576
1695804838599312000,3.002311767578125,0.19846388624906539,-0.8320821075379848,-0.6757309045489877
1695804838609311700,3.012311767578125,0.3047019087433815,-0.811318720972538,-0.5606363525126129
1695804838619310800,3.022310791015625,0.49569268263280386,-0.738520026743412,-0.40140115505252033
1695804838629309700,3.032309814453125,0.6753624365627765,-0.7106871401831507,-0.27950945368930696
1695804838639309600,3.0423095703125,0.802036513364315,-0.8140972457751632,-0.264869591505453
1695804838649308700,3.05230859375,0.9163385998487472,-0.9113383073434234,-0.3184151210689917
1695804838659308500,3.06230859375,0.9316893137156963,-1.029117422288656,-0.4569358856718987
1695804838669307600,3.0723076171875,0.7489315306425094,-1.1291238569170237,-0.5594307395825162
1695804838679307800,3.082307861328125,0.4685591765135526,-1.0778627484962344,-0.445444367983751
1695804838689306600,3.092306640625,0.12356442034840583,-0.884464036682248,-0.19535488738305865
1695804838699305700,3.1023056640625,-0.265735341489315,-0.7524722719892859,-0.03871928709526546
1695804838709305900,3.112305908203125,-0.590033931106329,-0.6380006741568446,-0.0019325206988491117
1695804838719304700,3.1223046875,-0.9106412649899721,-0.4599544297754764,-0.027726211315393445
1695804838729304800,3.132304931640625,-1.2335562912940978,-0.3382759693041444,-0.13376962455306202
1695804838739304000,3.142303955078125,-1.4863509026676416,-0.2768126158207655,-0.16582876877253874
1695804838749302500,3.152302490234375,-1.5031547379523515,-0.2643330734759569,-0.09848333498062566
1695804838759303000,3.162302978515625,-1.3025550087183713,-0.3489037463024258,-0.12835144456238484
1695804838769301800,3.1723017578125,-1.0627022965043782,-0.4188692629322409,-0.23858285667495802
1695804838779301600,3.182301513671875,-0.9527309327006339,-0.45899727518111466,-0.24419158166851848
1695804838789300700,3.19230078125,-0.9170610689043999,-0.45786330271512266,-0.1466368784406688
1695804838799299800,3.2022998046875,-0.9597475334644318,-0.3548772677540779,-0.023720482805371285
1695804838809299700,3.2122998046875,-1.1104811157673597,-0.11929653377085923,0.03717402128148824
1695804838819298800,3.222298828125,-1.3145038051873446,0.018234160348773003,0.14661520546497775
1695804838829298700,3.232298583984375,-1.5089993723273276,0.11176730730980634,0.12318051733104511
1695804838839297800,3.2422978515625,-1.584669238078594,0.23324439999014138,0.019389403931656852
1695804838849297700,3.252297607421875,-1.5442501339286565,0.26766134111583234,-0.08373045914266258
1695804838859296800,3.262296875,-1.387926184272766,0.2959156679585576,-0.09742826383658684
1695804838869295900,3.2722958984375,-1.0622148052483797,0.4350260324850678,-0.005777551354980096
1695804838879295700,3.282295654296875,-0.6255161633759737,0.5222486811250447,0.14256912667825816
1695804838889294600,3.292294677734375,-0.1632289067387581,0.5626227770894765,0.32244035799708215
1695804838899295000,3.302294921875,0.13929390439987183,0.5988163724988699,0.5094566387649625
1695804838909293600,3.31229345703125,0.270077170085907,0.6822495657280087,0.7271617435134947
1695804838919292700,3.322292724609375,0.3729682202398777,0.7528343832999468,0.8921452388346195
1695804838929292800,3.332292724609375,0.4485550838828087,0.7815811698347329,1.0422126853790135
1695804838939291600,3.342291748046875,0.4695622160762548,0.7569789357587695,1.0539520038157701
1695804838949291800,3.352291748046875,0.3622703006148338,0.7057906003132463,1.0015962320260703
1695804838959290600,3.36229052734375,0.2390232756525278,0.6694032358974218,0.998023341975361
1695804838969290800,3.372290771484375,0.16374503956735134,0.6503662347331642,0.9963815661177039
1695804838979289900,3.382289794921875,0.14495967507660387,0.5845066921174525,0.8511818717401474
1695804838989288700,3.392288818359375,0.18924071535170078,0.48220279420167206,0.6744573774818331
1695804838999288800,3.402288818359375,0.3263029151767492,0.39095308200269935,0.39141357565391804
1695804839009288000,3.412287841796875,0.39867257033884523,0.33133331055939197,0.030931852656020782
1695804839019287800,3.422287841796875,0.3485287755101919,0.2956111320540309,-0.22758262963509185
1695804839029286700,3.43228662109375,0.24651450819075107,0.23259148903936147,-0.32473767515402285
1695804839039285800,3.44228564453125,0.10608487775921821,0.2278282201603055,-0.2575602366064675
1695804839049285600,3.45228564453125,0.03127075205445289,0.33992432103306053,-0.02842670600125566
1695804839059284700,3.46228466796875,0.07057400391697884,0.4250289546057582,0.2583983679310419
1695804839069284900,3.472284912109375,0.2235948203742504,0.3927411344632506,0.4209805194651708
1695804839079284000,3.482283935546875,0.38521746096014975,0.30334406439363953,0.5727051586320624
1695804839089283000,3.492282958984375,0.5731020855277776,0.22036738276034593,0.6783847800586372
1695804839099283000,3.502282958984375,0.7004717433780432,0.162365567907691,0.707837011449039
1695804839109282000,3.512281982421875,0.7618325132697821,0.14575228675901888,0.6526646478686481
1695804839119282000,3.522281982421875,0.7284551443248987,0.15670125853568315,0.6153424868207424
1695804839129281000,3.532281005859375,0.6446066482931375,0.19570494292974472,0.5735133332097903
1695804839139281200,3.54228125,0.5615682996004819,0.1901145755767822,0.42719906518645584
1695804839149280000,3.552280029296875,0.5788537809222937,0.13627981727570296,0.1918419108260423
1695804839159279000,3.562279052734375,0.665193509247899,0.08838613946139812,0.006096785930072656
1695804839169279000,3.572279052734375,0.765840579867363,0.056769934970140455,0.05175710264365189
1695804839179277800,3.58227783203125,0.9041881433278322,0.040402737537026404,0.2577397944244556
1695804839189278000,3.59227783203125,1.0026958638310433,0.024954700775444507,0.5544414799278602
1695804839199276800,3.60227685546875,1.017132969984412,0.039521278527379036,0.833848313492909
1695804839209276000,3.61227587890625,0.9489514141619205,0.05280044681727886,1.069362631176412
1695804839219276000,3.622276123046875,0.7558990315675735,0.0017848375901579857,1.2021502954874188
1695804839229275000,3.63227490234375,0.5203250195860862,-0.050984921827912325,1.1100132790599018
1695804839239275000,3.64227490234375,0.34470892496109007,-0.1162982287377119,0.7293811000633984
1695804839249274000,3.652274169921875,0.24167057529091834,-0.21398907990008592,0.26423153106393293
1695804839259273000,3.66227294921875,0.16519406933188438,-0.37220775726139543,-0.0433787120073568
1695804839269273000,3.672273193359375,0.18964695806503296,-0.44471126793622967,-0.07962625696053728
1695804839279272200,3.682272216796875,0.22392449072003362,-0.4372840405449271,0.05451620122659951
1695804839289272000,3.69227197265625,0.25104922901093957,-0.46572336856573815,0.3661460460696369
1695804839299271200,3.702271240234375,0.3713292208611965,-0.4751715803906321,0.6353298475123942
1695804839309271000,3.71227099609375,0.4766822772145271,-0.5607973152279854,0.6785840289577841
1695804839319270000,3.722269775390625,0.5485556732922792,-0.7135930907577276,0.5980055675726383
1695804839329269000,3.73226904296875,0.6251894156396388,-0.8112582229569554,0.46028336946889753
1695804839339268900,3.742268798828125,0.6475035387784243,-0.8677996098682283,0.37150318918861447
1695804839349268000,3.75226806640625,0.5367436549454927,-0.7948696904748678,0.5051331130100414
1695804839359267800,3.762267822265625,0.26315935352146624,-0.5465612846046686,0.728543991652131
1695804839369267000,3.772266845703125,-0.08730828109681606,-0.2714747619241476,0.7589578346163034
1695804839379266000,3.78226611328125,-0.4975877025991678,-0.10060118565112351,0.48846839393507685
1695804839389266000,3.792265869140625,-0.9990355877578257,0.022229075203835963,0.052541576685383916
1695804839399265000,3.80226513671875,-1.6020201858520506,-0.022450316739082335,-0.2880689365135506
1695804839409265200,3.81226513671875,-1.9592156674206256,-0.13082038282603026,-0.3540612021308392
1695804839419264000,3.822263916015625,-1.8280401875466108,-0.0046028176203370096,-0.19809355509933083
1695804839429262800,3.832262939453125,-1.3681249207377433,0.14371552023440598,0.07546360258944332
1695804839439263200,3.84226318359375,-0.9012713790982961,0.07153203529417515,0.4022382999964058
1695804839449261800,3.85226171875,-0.557440990537405,-0.032948622138798234,0.6697966191291809
1695804839459262000,3.862261962890625,-0.6856792479157447,0.12458031939268112,0.6674084088183939
1695804839469261000,3.872260986328125,-1.2783558024853467,0.2693450564190745,0.3524809472020715
1695804839479261000,3.882260986328125,-2.042441063117981,0.2700996741786599,-0.13518281581923364
1695804839489260000,3.892260009765625,-2.765386504110694,0.3610349136009812,-0.5335789803694934
1695804839499259000,3.9022587890625,-3.2891192863136527,0.4937403795212507,-0.892575154684484
1695804839509259000,3.912259033203125,-3.6332512881696224,0.5398416209608317,-1.1357895253513008
1695804839519258000,3.922258056640625,-3.6530730099707838,0.5618000625297427,-1.1361578472070395
1695804839529258000,3.932258056640625,-3.2475106801182028,0.6140358612015843,-1.0275834907196462
1695804839539257000,3.942257080078125,-2.56020529230535,0.5909232811614871,-0.9162322899300605
1695804839549257000,3.952257080078125,-1.7797054879665373,0.5874067974731326,-0.7534747270300984
1695804839559256000,3.962256103515625,-0.8722621422350406,0.5794459015965462,-0.5237796535519883
1695804839569256200,3.972256103515625,0.06515197886824607,0.493391127692163,-0.25708500204384327
1695804839579255000,3.982255126953125,0.9468711007565259,0.31696751607656476,0.0018518932106904684
1695804839589254000,3.99225390625,1.659156031525135,0.14325608602911233,0.30782325563430785
1695804839599254000,4.00225390625,2.2076550061941145,0.052795478381216523,0.49209027422666546
1695804839609252900,4.0122529296875,2.5600872188836337,-0.04098082968592644,0.47115628033466633
1695804839619253000,4.0222529296875,2.6396640289455653,-0.1916968763321638,0.17214867424275726
1695804839629251800,4.032251953125,2.432568507951498,-0.2874509142130613,-0.3181222390696406
1695804839639251000,4.0422509765625,1.9553268432885407,-0.2543199212446809,-0.7914863316468894
1695804839649251000,4.0522509765625,1.3837141195356846,-0.11277619209140538,-1.109908722706884
1695804839659250000,4.06225,0.8269909218788146,0.09893266791701316,-1.245369624815136
1695804839669250000,4.07225,0.2501286070346832,0.3316682416021824,-1.2341598101451992
1695804839679249200,4.082249267578125,-0.24053835639059543,0.5173045027211308,-1.159478078648448
1695804839689249000,4.0922490234375,-0.5054179578334093,0.6722422587156296,-1.0108711331106721
1695804839699248000,4.102248046875,-0.5868593927234411,0.7069912082746624,-0.7616025039061903
1695804839709247000,4.1122470703125,-0.6014040509045123,0.6676821111932396,-0.6755156543631107
1695804839719247000,4.1222470703125,-0.5712099881708622,0.6698533177524805,-0.6966460476100444
1695804839729246000,4.132245849609375,-0.4066600619614124,0.7100114328786731,-0.5935731746157631
1695804839739245800,4.142245849609375,-0.12815583979189396,0.6369400591880082,-0.45774267201013863
1695804839749245000,4.152244873046875,0.14153262323737142,0.6232412041813135,-0.3737130837904289
1695804839759244000,4.162244140625,0.38056817384958264,0.6017676235198974,-0.3057428691636771
1695804839769244000,4.172243896484375,0.49312838510274887,0.5739084334746003,-0.26535726542454213
1695804839779243000,4.182242919921875,0.5507610743820667,0.5377770896464585,-0.24580749243255703
1695804839789243000,4.192242919921875,0.6425193206250667,0.48806671779900784,-0.23817385574895888
1695804839799242000,4.202241943359375,0.7425356921255588,0.40517596088349817,-0.28431573972618207
1695804839809241000,4.212240966796875,0.8608926069587468,0.3551955399230122,-0.3668592723729089
1695804839819241000,4.222240966796875,0.9974059407293796,0.28515374318659303,-0.5026773538883775
1695804839829240000,4.232239990234375,1.0296738871276379,0.08608926069587469,-0.7665304618276655
1695804839839240200,4.242240234375,0.9374012616217136,-0.057853054031729696,-1.1525691029775886
1695804839849238800,4.25223876953125,0.8668903860688209,-0.09627572366744279,-1.4125491688758134
1695804839859239200,4.2622392578125,0.8402133915454149,-0.16220862378031015,-1.5606110477514563
1695804839869238000,4.272238037109375,0.9361971465289592,-0.20651479849666357,-1.5920032342284918
1695804839879236900,4.28223681640625,1.0536714333087205,-0.21387685169726608,-1.4698872591227292
1695804839889237000,4.292237060546875,1.1570336081057786,-0.1985921888038516,-1.236962154214829
1695804839899235800,4.30223583984375,1.2132903328567743,-0.15765110660642384,-0.970583546385914
1695804839909236000,4.312236083984375,1.2293085707217455,-0.11217150419652461,-0.7776612199120223
1695804839919235000,4.322235107421875,1.1362000789135693,-0.08557605047672986,-0.7353404468592256
1695804839929234000,4.33223388671875,0.9255781373590231,-0.1386734344139695,-0.9212066442765295
1695804839939234000,4.342234130859375,0.6307926424741744,-0.1913335959777236,-1.2421288893282412
1695804839949233200,4.352233154296875,0.41877077099382876,-0.21590251230597496,-1.3763307312861084
1695804839959233000,4.36223291015625,0.3722878367602825,-0.07969780609309673,-1.228859950171411
1695804839969232100,4.372232177734375,0.49517070458531376,0.05534633190780878,-0.8458735361989587
1695804839979231000,4.38223095703125,0.8026011615097522,0.07711188125312328,-0.4715324932359159
1695804839989231000,4.392231201171875,1.1881611522972584,0.03282762610763311,-0.3153101407909766
1695804839999230000,4.40222998046875,1.5266794059246778,-0.1646279598817229,-0.5612122892370447
1695804840009229800,4.412229736328125,1.5942939755141734,-0.41750966501682996,-1.0241581924460827
1695804840019229000,4.42222900390625,1.4570382989436388,-0.6197352418869734,-1.4168654246397316
1695804840029228800,4.432228759765625,1.1452847181230783,-0.7785016162589192,-1.6236770141258834
1695804840039228000,4.442227783203125,0.828652133089304,-0.8629200211331248,-1.5229570244006811
1695804840049227000,4.45222705078125,0.5920879410266876,-0.8877692157074809,-1.2834228766165674
1695804840059227000,4.462226806640625,0.423386155834794,-0.9116162475019692,-1.0194619974538683
1695804840069225500,4.4722255859375,0.33851416197419165,-0.9169421186998487,-0.8486949502952397
1695804840079225600,4.4822255859375,0.24451310524046418,-0.9715089906677603,-0.9427401384316384
1695804840089224700,4.492224609375,0.1593582027852535,-1.0533674819260834,-1.1330137039624153
1695804840099223300,4.502223388671875,0.042585926795005793,-1.107727725405991,-1.3205463002219795
1695804840109223700,4.5122236328125,-0.10936755269169807,-1.1869222581520675,-1.33134358856827
1695804840119222500,4.522222412109375,-0.3091045276165008,-1.1476827191755175,-1.1642081759102643
1695804840129222400,4.532222412109375,-0.6616004531919956,-1.0427724381536245,-1.0568997477054596
1695804840139221500,4.542221435546875,-1.0383148742228745,-0.9073053985655307,-0.9556766307637095
1695804840149221400,4.552221435546875,-1.3232248717814683,-0.7573980379536748,-0.8097448227193206
1695804840159220500,4.562220458984375,-1.5678981360197066,-0.5592579768314957,-0.5444308119146153
1695804840169219600,4.572219482421875,-1.7652257117152212,-0.45349984680861233,-0.1109690696042031
1695804840179219500,4.582219482421875,-1.8032453535079955,-0.46806730134338137,0.2999518646720797
1695804840189218600,4.592218505859375,-1.6629349655419587,-0.4741977669224143,0.39085254423767324
1695804840199218400,4.602218505859375,-1.4980764117747545,-0.42394203615188597,0.266753213294968
1695804840209217500,4.612217529296875,-1.4788982485741375,-0.39835429816991086,0.16544285646118223
1695804840219216600,4.622216552734375,-1.5188953279197215,-0.3094032183021307,0.052823718095012004
1695804840229216500,4.632216552734375,-1.5516221240013837,-0.2449520811796188,-0.11321399898678064
1695804840239215400,4.64221533203125,-1.5831839679569004,-0.10624328319132327,-0.2252670644354075
1695804840249215500,4.652215576171875,-1.603341789844632,0.06300649127215147,-0.23640757672879845
1695804840259214300,4.66221435546875,-1.5761510005801915,0.23346008856743572,-0.17469897978007792
1695804840269213400,4.67221337890625,-1.4445342066794633,0.31780981211960313,0.023194961093924937
1695804840279213300,4.68221337890625,-1.241430385670066,0.32755262297689913,0.2524929615458473
1695804840289212400,4.69221240234375,-0.9550058918952942,0.357937532107532,0.422254594521597
1695804840299212500,4.702212646484375,-0.6032178223282099,0.38348201546967026,0.5033999325418844
1695804840309211400,4.71221142578125,-0.16361469118595123,0.3629211657389998,0.5198800522975623
1695804840319211500,4.72221142578125,0.24163082780241965,0.3894342018723488,0.40916338655184953
1695804840329210600,4.732210693359375,0.44191959139108655,0.47676557158380745,0.33880642291903496
1695804840339209500,4.74220947265625,0.2851151647418737,0.6443588110119104,0.35800146418921647
1695804840349209600,4.752209716796875,0.009692541974782943,0.7828045741498469,0.4144275176251307
1695804840359208700,4.762208740234375,-0.30095512343049047,0.8150082231402397,0.47833095773700623
1695804840369208600,4.77220849609375,-0.5671013838082551,0.6959174410745501,0.46015170591324567
1695804840379207400,4.78220751953125,-0.7445505390793085,0.5499821989640593,0.37986557853817937
1695804840389206500,4.79220654296875,-0.771799196010828,0.39433395661264653,0.24503928453903645
1695804840399206400,4.802206298828125,-0.7024030037015676,0.2723126740530133,0.04688106670565903
1695804840409205500,4.81220556640625,-0.6416203259587288,0.17512860336899758,-0.2653294275695458
1695804840419205400,4.822205322265625,-0.7247504445880651,0.06814794581383467,-0.726468354421854
1695804840429204500,4.83220458984375,-0.8777695074796676,0.06923661783337592,-0.9581168635226786
1695804840439204400,4.842204345703125,-0.9591226795643567,0.1517024273350835,-0.8560453130580484
1695804840449203500,4.852203369140625,-0.9209130681574345,0.2687406607851386,-0.6108154013177379
1695804840459202600,4.86220263671875,-0.7665969511926174,0.3358887819066643,-0.3549211799610406
1695804840469202400,4.872202392578125,-0.44371816524565216,0.36953444639891386,-0.11454174045920372
1695804840479201500,4.882201416015625,0.018204349732398987,0.3784948747068643,0.2115040216187015
1695804840489201700,4.89220166015625,0.39742052445113657,0.3545359069705009,0.5098274083061144
1695804840499200500,4.902200439453125,0.663157034984231,0.2875274865806103,0.8435355217054485
1695804840509199400,4.912199462890625,0.8916367047905921,0.23944763854444026,1.0928472593992948
1695804840519199500,4.922199462890625,0.9874082783281802,0.21392449023127555,1.1629355256259442
1695804840529198300,4.9321982421875,0.9123357939481734,0.2616238145172596,1.0544269278511404
1695804840539198500,4.942198486328125,0.5439806204617024,0.3815674140200019,0.8959902238249778
1695804840549197300,4.952197265625,0.12248422389626502,0.401125516448915,0.6766239809311926
1695804840559197400,4.962197509765625,-0.07071545821428299,0.38159021037369967,0.5646446017732843
1695804840569196500,4.972196533203125,-0.04334112907648086,0.5007482124567032,0.5958109436051919
1695804840579195400,4.9821953125,0.08398761224150657,0.573381194730103,0.777322197216004
1695804840589195500,4.992195556640625,0.31984628638327117,0.6293427359268069,1.0432343565769493
1695804840599194600,5.002194580078125,0.49786008979976176,0.686669135735929,1.1411994946360586
1695804840609194500,5.012194580078125,0.5068950446486473,0.7547966232836246,1.0940152072001248
1695804840619193600,5.022193603515625,0.38110827207565307,0.7665867220595478,1.1313722934309391
1695804840629192700,5.032192626953125,0.3187970695912838,0.7619336355566978,1.2346984470665454
1695804840639192600,5.042192626953125,0.4566255776137113,0.7079083231195807,1.3091057455360888
1695804840649191400,5.05219140625,0.6776777277678251,0.6431549881801009,1.3019566044338047
1695804840659191600,5.062191650390625,0.9820447054684162,0.515386978662014,1.2571179302759468
1695804840669190400,5.0721904296875,1.339355922371149,0.40234161424040793,1.1701513022236525
1695804840679190300,5.082190185546875,1.5712538761883974,0.27893355349749327,0.8971238309647888
1695804840689189400,5.092189453125,1.5105454327255488,0.0781152130767703,0.4269114073514938
1695804840699188500,5.1021884765625,1.3029559907346964,-0.08430354632288217,0.07122625728063285
1695804840709188400,5.112188232421875,1.1092828458935022,-0.12561463087648153,0.01681537959203124
1695804840719187500,5.1221875,0.9744050043702125,-0.10060556956529616,0.17067681159190834
1695804840729187600,5.1321875,0.9328688788890838,-0.08947510374188422,0.32443573306538165
1695804840739186400,5.1421865234375,0.9751187055975198,-0.10579232455343007,0.4807139438834041
1695804840749185500,5.152185546875,1.0581477019399403,-0.14776538014709947,0.6640384209286421
1695804840759185700,5.162185546875,1.0717653084039687,-0.16097411354929209,0.8082397519186139
1695804840769184500,5.1721845703125,1.0249000968545674,-0.15989567066282032,0.7674274106673896
1695804840779184600,5.1821845703125,0.7351064189076423,-0.2834627213597298,0.5211519719295203
1695804840789183500,5.19218359375,0.3099000619083643,-0.384564257748425,0.29445165982060134
1695804840799183600,5.20218359375,-0.05548457133471965,-0.4401780084207654,0.20943251257427037
1695804840809182500,5.212182373046875,-0.3023234891742468,-0.47513183290213346,0.2100965294409543
1695804840819181600,5.222181640625,-0.38083120869994164,-0.4761392563790083,0.21316329660043118
1695804840829181400,5.232181396484375,-0.2851040588259697,-0.4747893030747771,0.15354849359318612
1695804840839180500,5.2421806640625,-0.02644844646453857,-0.5638952812433242,0.0986662720657885
1695804840849180400,5.252180419921875,0.2571428697109222,-0.7009405299335718,0.0047588849648833274
1695804840859179500,5.262179443359375,0.4091360966861248,-0.8525111475825309,-0.058493397761881345
1695804840869178600,5.2721787109375,0.3956289648592472,-0.9351452993884682,-0.05573386992067098
1695804840879178500,5.282178466796875,0.22294307846724987,-0.9312298795104026,0.1716683068472892
1695804840889177600,5.292177490234375,-0.058335869112610815,-0.8028373083531856,0.4996185508396476
1695804840899177500,5.302177490234375,-0.3356915057688951,-0.699369627355039,0.7146661998819559
1695804840909176600,5.312176513671875,-0.6278367152780294,-0.6552990149602294,0.7366043293152004
1695804840919176700,5.3221767578125,-0.8562345520198344,-0.6565387858882547,0.6704264414653182
1695804840929175300,5.33217529296875,-1.023349360281229,-0.7091440023943781,0.592691459877789
1695804840939174400,5.34217431640625,-1.0837935998499393,-0.9136518449828028,0.6789034701704979
1695804840949174500,5.352174560546875,-0.8773743706822394,-0.9660223759502172,0.7039331358782946
1695804840959173400,5.36217333984375,-0.6343856985300779,-0.8378343874543904,0.5461312226243317
1695804840969173500,5.372173583984375,-0.682549133196473,-0.9081032709449529,0.42494566023647784
1695804840979172400,5.38217236328125,-0.9596329671740531,-1.0381535461813212,0.2142906931951642
1695804840989171500,5.39217138671875,-1.1674942118436098,-1.0194058833524584,-0.20192542487978934
1695804840999171600,5.402171630859375,-1.1830676285505295,-0.9702449620813131,-0.6138609430260956
1695804841009170400,5.41217041015625,-1.1391039836615324,-0.8125202057167887,-0.8768076767101883
1695804841019170600,5.422170654296875,-1.1437824968665837,-0.6279308233022689,-1.023097431346774
1695804841029169700,5.432169677734375,-1.2512445081979036,-0.5045537422195077,-1.0257027915395796
1695804841039169500,5.44216943359375,-1.4485253221422434,-0.37078532324284313,-0.8515025550618768
1695804841049168600,5.452168701171875,-1.65577106526196,-0.10057692799270153,-0.5814657169863582
1695804841059167500,5.46216748046875,-1.8495389026492832,0.17689941243380308,-0.2823150126293301
1695804841069167400,5.47216748046875,-1.949395699673891,0.3854971546843648,-0.10082140427306294
1695804841079166500,5.48216650390625,-1.893773765695095,0.5937623039796948,0.015359335564821958
1695804841089166300,5.492166259765625,-1.665213431867957,0.7552206939145922,0.22181173634976148
1695804841099165400,5.50216552734375,-1.335489894592762,0.7944462043657898,0.5640275293208659
1695804841109164500,5.51216455078125,-0.9115829297542571,0.8131447673559188,0.90256960221529
1695804841119164400,5.522164306640625,-0.3940700449794531,0.8549708156943321,1.2020713119670747
1695804841129163500,5.53216357421875,0.1621691685527563,0.7281880178213119,1.4944513531453907
1695804841139163400,5.542163330078125,0.6529717410564422,0.5462213851258159,1.6336638628721236
1695804841149162200,5.552162353515625,1.0043675964355467,0.3790948864266276,1.5968967053584753
1695804841159162600,5.56216259765625,1.1694395006924867,0.2785270185232162,1.5053428956463932
1695804841169161200,5.5721611328125,1.166506954371929,0.21338322296142576,1.3849331399366258
1695804841179160300,5.582160400390625,1.0352987412720918,0.24075404496788977,1.2900740050688386
1695804841189160400,5.592160400390625,0.786618579480052,0.36857378467321394,1.14643797981143
1695804841199159300,5.6021591796875,0.4260626815676689,0.4647834573671221,0.9111837013036012
1695804841209159400,5.612159423828125,0.015555296528339386,0.48791444984674454,0.6103956050030886
1695804841219158500,5.622158447265625,-0.3374538392663002,0.5195157490298151,0.3129335843853652
1695804841229157400,5.632157470703125,-0.6597539485424757,0.5891077561721205,0.0825289378657937
1695804841239157500,5.642157470703125,-0.9051070117384195,0.641075259296596,-0.013664806606620549
1695804841249156400,5.65215625,-1.026762383595109,0.7013777523070573,-0.03467778401896357
1695804841259156500,5.662156494140625,-0.9306459421426058,0.7177551788732409,0.014361264438182114
1695804841269155600,5.672155517578125,-0.6927455330401658,0.7229071548089384,0.13080635430067777
1695804841279155500,5.682155517578125,-0.3286082695096731,0.7204565467864275,0.38754254290685053
1695804841289154300,5.692154296875,-0.006101824006438255,0.7740852611213922,0.6969323172055184
1695804841299153400,5.7021533203125,0.23889994153380392,0.8930348811507225,1.049079137082398
1695804841309153300,5.7121533203125,0.391192443716526,0.9899722835972905,1.3526687006697058
1695804841319152400,5.72215234375,0.44533553731441494,1.0062547253564,1.514341902399063
1695804841329152300,5.73215234375,0.3826397194266319,0.9821294611424207,1.4075127821438014
1695804841339151400,5.7421513671875,0.21350246542692183,0.9295663302123546,0.9928969388723373
1695804841349150500,5.752150390625,0.1119979011952877,0.8788175552278756,0.5697993907205761
1695804841359150300,5.762150390625,0.16716507714390755,0.7931827603012322,0.26002631619274613
1695804841369149400,5.7721494140625,0.3461819201231003,0.6674871731430292,0.07486191036924719
1695804841379149300,5.7821494140625,0.6557640021234751,0.5281190344631672,0.014263941543549298
1695804841389148400,5.7921484375,0.9998024804770946,0.4889528529837727,0.0900081877052784
1695804841399147500,5.8021474609375,1.316541448494792,0.4379328598424792,0.26711335184425117
1695804841409147400,5.8121474609375,1.5429887356907128,0.3406652025282383,0.42375367397293445
1695804841419146200,5.822146240234375,1.6142384469121693,0.26165947035253045,0.5067641117453575
1695804841429146400,5.832146484375,1.5057587829709052,0.20721622476428747,0.4579281846448779
1695804841439145200,5.842145263671875,1.239011049568653,0.14074264190346003,0.26751360320821405
1695804841449145300,5.852145263671875,1.0353121852755547,0.06107961486279964,0.029788842933624982
1695804841459144400,5.86214453125,0.9444903430998325,0.0016448445975780486,-0.21096768625229595
1695804841469143300,5.872143310546875,0.9299918621480464,-0.0750759915113449,-0.3712399351425469
1695804841479143400,5.882143310546875,0.9775175834327936,-0.22573387822955845,-0.37625177195519205
1695804841489142500,5.892142578125,1.0764712941378354,-0.33059418262988327,-0.22547405824959277
1695804841499142400,5.902142333984375,1.1489110919266938,-0.4170303570672869,-0.028286475546658037
1695804841509141500,5.9121416015625,1.133127247339487,-0.4830956513881683,0.1604356227584183
1695804841519140600,5.922140625,1.0217436786502598,-0.4938248429343104,0.2755488794952631
1695804841529140500,5.932140380859375,0.8699223011106252,-0.5293628970444202,0.2514998953878879
1695804841539139600,5.9421396484375,0.7941174108028412,-0.5639101865515113,0.13771379560157657
1695804841549139500,5.952139404296875,0.7941770320355892,-0.5813192942529917,0.03167085728794336
1695804841559138300,5.96213818359375,0.7921382196843624,-0.6305889365956187,-0.04532221989110112
1695804841569138200,5.97213818359375,0.7686269957154989,-0.7054033545613289,-0.10559724037274718
1695804841579137300,5.98213720703125,0.8334230007529259,-0.8125409562438726,-0.16811185647472737
1695804841589136400,5.992136474609375,0.9572510404735803,-0.9187228646367788,-0.3144160780280828
1695804841599136300,6.00213623046875,1.0853361531168222,-1.013716439539194,-0.4271345485828817
1695804841609135400,6.01213525390625,1.2511609215676784,-1.065548625846207,-0.3588042319394648
1695804841619135500,6.022135498046875,1.3424597336053847,-1.077244032076001,-0.25748890666961666
1695804841629134300,6.03213427734375,1.2619552873045206,-1.0550243092224,-0.13705416264906525
1695804841639134500,6.042134521484375,0.9468097259581089,-0.9646768065601586,0.059225803689658636
1695804841649133600,6.052133544921875,0.5256856698364019,-0.7870522947221994,0.30365313034281133
1695804841659132400,6.06213232421875,0.14964812515377998,-0.7429793442398309,0.39182445800974963
1695804841669132500,6.072132568359375,-0.21605974869430064,-0.7280909871876239,0.1993443223454058
1695804841679131400,6.08213134765625,-0.5311550411581992,-0.638249680481851,-0.1383795660339296
1695804841689131500,6.092131591796875,-0.8603484170794486,-0.512494179829955,-0.34207141606435176
1695804841699130400,6.10213037109375,-1.2941373089849948,-0.46910891935080284,-0.35522725023552776
1695804841709129200,6.112129150390625,-1.6997189280599354,-0.5354214664310216,-0.1203439969971776
1695804841719129300,6.12212939453125,-1.7504104198992252,-0.45211599123477936,0.14387509471029042
1695804841729128400,6.13212841796875,-1.658044270890951,-0.20109949544966219,0.30544045215100046
1695804841739128300,6.14212841796875,-1.655944083741307,-0.11463935561478138,0.4259965575288981
1695804841749127400,6.15212744140625,-1.6843606154084205,-0.08164952468276024,0.6936153016120195
1695804841759127300,6.162127197265625,-1.6721066985130308,0.02357289102822542,0.8283497891418635
1695804841769126400,6.17212646484375,-1.627750839436054,0.15187486129254102,0.8684039324369281
1695804841779125500,6.18212548828125,-1.5685644909739493,0.22673750231415032,0.9437563297368585
1695804841789125400,6.19212548828125,-1.517507088431716,0.2943509028598666,0.907050766217336
1695804841799124500,6.20212451171875,-1.5161831463515758,0.3618240181520581,0.6844543092306703
1695804841809124400,6.212124267578125,-1.5205471867799758,0.3543406766593456,0.36640937318094075
1695804841819123500,6.22212353515625,-1.4929343727111815,0.3412628761604428,0.09201587426587939
1695804841829122300,6.232122314453125,-1.3702537494599818,0.38816286676228046,-0.07994622789621353
1695804841839122200,6.2421220703125,-1.138105035752058,0.5016431154698133,-0.05440086775124073
1695804841849121300,6.252121337890625,-0.8512713766545057,0.600201689377427,0.08565159993097185
1695804841859121400,6.262121337890625,-0.5746709422796964,0.7576864995062351,0.23652649040073154
1695804841869120300,6.272120361328125,-0.3423632386177778,0.9671309217140078,0.44724991956837473
1695804841879120400,6.282120361328125,-0.14859540123045445,1.0682041087910532,0.7191619038660079
1695804841889119500,6.292119384765625,-0.08393149814009666,1.1271677544131875,0.9751878253109753
1695804841899118300,6.302118408203125,-0.19031039040982722,1.2351868151053786,1.1375696867663412
1695804841909118500,6.312118408203125,-0.3587999941557646,1.3638570341601968,1.277564359846711
1695804841919117600,6.32211767578125,-0.5572685565799474,1.4471049339503048,1.421634684868157
1695804841929117400,6.332117431640625,-0.6384563089698553,1.4553542913794517,1.456343594677746
1695804841939116500,6.342116455078125,-0.5370359158903361,1.4326818563222885,1.4781372010737657
1695804841949115400,6.352115478515625,-0.33320787225961684,1.3325199388712643,1.3784510844409466
1695804841959115500,6.362115478515625,-0.05760755483806133,1.2119245974615216,1.1916015020094812
1695804841969114400,6.3721142578125,0.20101415525376795,1.0989411923602224,1.0845202336240558
1695804841979114200,6.3821142578125,0.4146247572302818,1.061878412900865,1.137744239615649
1695804841989113300,6.39211328125,0.5757452935129403,1.052120696735382,1.3207774786293507
1695804841999112400,6.402112548828125,0.5405746114104986,1.0127458409413694,1.4995469227187335
1695804842009112300,6.4121123046875,0.41053661113381384,1.029208899964392,1.5278361747443676
1695804842019111400,6.422111328125,0.22808745561838148,1.0641735381007194,1.462418238416314
1695804842029111300,6.432111328125,0.03504851702749729,0.980866309338808,1.3701008969858288
1695804842039110400,6.4421103515625,-0.15789748258292674,0.8825663863673806,1.2175802851356565
1695804842049110500,6.452110595703125,-0.26384850482940675,0.8394280863866209,1.0230560764230787
1695804842059109400,6.462109375,-0.3034954555630684,0.7858505177170038,0.8359666938863695
1695804842069108500,6.4721083984375,-0.3274789732187986,0.7242278820186853,0.6829346253827214
1695804842079108400,6.4821083984375,-0.3211930248171091,0.6603644816562533,0.5949843931205571
1695804842089107500,6.492107421875,-0.24654490332901477,0.6563669364526867,0.5661589883916079
1695804842099107600,6.502107666015625,-0.13844225600659846,0.690572572915256,0.6792290488630532
1695804842109106400,6.5121064453125,0.037542087408900256,0.7485708806365728,0.9287364552594721
1695804842119106600,6.5221064453125,0.1594458810687065,0.78425360391438,1.20449561650455
1695804842129105700,6.532105712890625,0.22580080598592756,0.8632099439904093,1.4010396406069396
1695804842139104500,6.5421044921875,0.15598258887231348,0.8811769778355956,1.3820115534014998
1695804842149104600,6.552104736328125,-0.04853928224146366,0.8012652367308736,1.26098191222772
1695804842159103500,6.562103515625,-0.25488895330429073,0.7782616700232029,1.093872510793805
1695804842169103400,6.572103271484375,-0.4153565786361694,0.7750020837053656,1.0138060175187886
1695804842179102500,6.5821025390625,-0.5109107100307941,0.7640572035819292,0.9968407080620527
1695804842189101600,6.5921015625,-0.5077893631398678,0.7852984367921948,0.9915842488385737
1695804842199101400,6.602101318359375,-0.3989607396304607,0.7620368036702275,0.9884390826806425
1695804842209100500,6.6121005859375,-0.2064893717944622,0.6509165620923042,0.9345523019313812
1695804842219100400,6.622100341796875,0.06293371829688549,0.542770660150051,0.8111756592400372
1695804842229099500,6.632099609375,0.3323948023110628,0.46244683111310003,0.7341429807029665
1695804842239099400,6.642099365234375,0.4799333879649639,0.33854923328757286,0.7033059438906609
1695804842249098500,6.652098388671875,0.5111731603592634,0.2585395847663283,0.6705228875771164
1695804842259097600,6.66209765625,0.41432139036953447,0.21596856327950953,0.6537725360453128
1695804842269097500,6.672097412109375,0.2424123335689306,0.1588759722262621,0.5884061837740242
1695804842279096600,6.6820966796875,0.00203822782933712,0.08910890077799558,0.45910511946976185
1695804842289096700,6.6920966796875,-0.2228898869752884,0.06771189248412847,0.35284181640371676
1695804842299095300,6.70209521484375,-0.43821021547913547,0.09107581693679094,0.2945768205702305
1695804842309094400,6.712094482421875,-0.5815291376113891,0.07981821760237216,0.34574776648953554
1695804842319094500,6.722094482421875,-0.6070517014026642,0.025684476354718207,0.36247312971055506
1695804842329093400,6.73209326171875,-0.5608487531542777,-0.03335106545984745,0.33071897805333134
1695804842339093500,6.742093505859375,-0.446627915212512,-0.014268763849139212,0.34404534648582336
1695804842349092600,6.752092529296875,-0.35488954271376133,-0.08019435743838549,0.44622810223996634
1695804842359092500,6.762092529296875,-0.2522510060161352,-0.1575797949358821,0.5604631148375571
1695804842369091600,6.772091552734375,-0.18596563920378684,-0.1947787679955363,0.6502861552342772
1695804842379090400,6.78209033203125,-0.12276596344709395,-0.20387714346945285,0.6990053240872919
1695804842389090600,6.792090576171875,-0.10877134036421775,-0.18118015849292277,0.7257993691191077
1695804842399089700,6.802089599609375,-0.04165829055607319,-0.17500497698932885,0.715930155403167
1695804842409089500,6.812089599609375,-0.009463409394025802,-0.12880378230661152,0.606102730114758
1695804842419088600,6.822088623046875,0.031997897285223,-0.09339227718561888,0.5844387414477765
1695804842429087500,6.83208740234375,0.11089198578000067,-0.009038754241168498,0.6923635479852557
1695804842439087400,6.84208740234375,0.2866740846216678,0.14256167402416467,0.8435241235285997
1695804842449086500,6.85208642578125,0.4619897349953651,0.2622553904190659,0.9435841880403458
1695804842459086300,6.86208642578125,0.6399164446502924,0.4141474951073527,1.0370315564140677
1695804842469085400,6.87208544921875,0.7686550527662038,0.5487953272670507,1.2267125628791749
1695804842479085600,6.88208544921875,0.8162842344254255,0.5834472461923956,1.4449068393841384
1695804842489084400,6.89208447265625,0.8736649947702884,0.5679822582960129,1.5920426894560455
1695804842499083500,6.90208349609375,0.8423404667019844,0.4349263715028763,1.641095474177599
1695804842509083400,6.91208349609375,0.731304104015231,0.19655571454018353,1.7305051114678383
1695804842519082500,6.92208251953125,0.669978989958763,0.012381342667341231,1.8197952140316367
1695804842529082600,6.93208251953125,0.6222375800967216,0.0002899228572845459,1.949615772165358
1695804842539081500,6.94208154296875,0.38475510414540764,0.039953532464802266,1.8995117248252034
1695804842549080300,6.952080322265625,-0.18721242439448832,0.0517009611427784,1.556582376757264
1695804842559080700,6.962080810546875,-0.8706219738125801,-0.01559036784172058,0.9675140758126973
1695804842569079300,6.972079345703125,-1.511896847334504,-0.15163491505682467,0.29000790521949527
1695804842579079400,6.982079345703125,-2.042360399097204,-0.11731529682576655,-0.29503596251457925
1695804842589078500,6.99207861328125,-2.4089076463788746,-0.07453004806637764,-0.6054732000395655
1695804842599078400,7.002078369140625,-2.5837369745403524,-0.0611792758449912,-0.5490399496778845
1695804842609077500,7.012077392578125,-2.593762693992257,-0.01899462332725525,-0.33133652542978526
1695804842619076600,7.02207666015625,-2.509145551675558,-0.08370558042973279,-0.11907003153860568
1695804842629076500,7.032076416015625,-2.263267003300786,-0.2356377248674631,0.052479544299840926
1695804842639075600,7.04207568359375,-1.9692904867112635,-0.330977044467628,0.15858195771574973
1695804842649075500,7.052075439453125,-1.8377374056965112,-0.3174900786459446,0.12511954083591698
1695804842659074600,7.062074462890625,-1.8739537974596023,-0.23936522095799445,0.11429127282947302
1695804842669073700,7.07207373046875,-1.987661425182223,-0.10267682288140058,0.2180038684993982
1695804842679073500,7.082073486328125,-2.096514014089107,0.07395312496125697,0.22355624192953108
1695804842689072600,7.09207275390625,-2.048576789394021,0.2591670690149069,0.18694120623767374
1695804842699072500,7.102072509765625,-1.8997277056634425,0.3588312660768628,0.15245879866033793
1695804842709071400,7.1120712890625,-1.6008990728676318,0.3738122698485851,0.05967530102282762
1695804842719071500,7.122071533203125,-1.2120230893999338,0.3847904677197337,-0.024565409196913243
1695804842729070300,7.1320703125,-0.8297188855379819,0.41805882333219047,0.008121639396250248
1695804842739069400,7.1420693359375,-0.5721253494501114,0.42079935421198605,0.04938976159095764
1695804842749069600,7.152069580078125,-0.3813298058718443,0.4171118978708982,0.014600772282481193
1695804842759068400,7.162068359375,-0.27836978213489055,0.42273762879818677,-0.009248013077676295
1695804842769068500,7.172068603515625,-0.28120938947498797,0.45657852360159157,-0.04986263979971409
1695804842779067400,7.1820673828125,-0.4041232369601726,0.5381161123424768,-0.12335574603378772
1695804842789066500,7.19206640625,-0.5767787282139063,0.6378253175899387,-0.20301964985728263
1695804842799066600,7.202066650390625,-0.6931137818306684,0.7144894550755619,-0.274558699414134
1695804842809065500,7.2120654296875,-0.7166290974527597,0.7167384030461311,-0.39131840818375346
1695804842819065600,7.222065673828125,-0.6991781964361667,0.6967077146694064,-0.4617021502256393
1695804842829064700,7.232064697265625,-0.6284463716089725,0.6952531319469213,-0.3588207446828484
1695804842839064600,7.242064697265625,-0.4905465519160032,0.7276105101943016,-0.17236059996038675
1695804842849063400,7.2520634765625,-0.3324368878871202,0.8097308672592043,0.020798457878828048
1695804842859062500,7.2620625,-0.168225399851799,0.8393138123571873,0.1545575245052576
1695804842869062400,7.2720625,0.05281798247396945,0.8151198668211698,0.3403291024416685
1695804842879061500,7.2820615234375,0.2862204956352711,0.8200833344474434,0.5249079634621739
1695804842889061400,7.292061279296875,0.4989198279857635,0.8454042381867766,0.7030988770112395
1695804842899060500,7.302060546875,0.5924199494600295,0.8166735260039567,0.8906304503574967
1695804842909059600,7.3120595703125,0.7081079373449086,0.79210548645854,1.057232632921636
1695804842919059500,7.3220595703125,0.7684381951451301,0.7786226122900843,1.1246510954171418
1695804842929058600,7.33205859375,0.770665223544836,0.7314689391881227,1.1556593971431255
1695804842939058400,7.342058349609375,0.8375392039000987,0.7140387886986136,1.1970476385861635
1695804842949057500,7.3520576171875,0.9128472506016493,0.6833677561029792,1.2667378454059361
1695804842959057700,7.3620576171875,1.037780621215701,0.6933803238123655,1.3536504051834344
1695804842969056500,7.372056396484375,1.1833856084585188,0.7708455485478043,1.3873542296037078
1695804842979055400,7.382055419921875,1.3597937302440404,0.9524974162057042,1.353908763858676
1695804842989055500,7.392055419921875,1.5088222621947527,1.21253337700963,1.2869219707787036
1695804842999054300,7.402054443359375,1.61390176230371,1.4543714178219436,1.2764207427695393
1695804843009054500,7.412054443359375,1.691702210342884,1.5563950374916196,1.1992900106854736
1695804843019053600,7.422053466796875,1.7673814284443854,1.5957032577902077,1.1588916570626198
1695804843029052400,7.432052490234375,1.9055507127285003,1.6146286152735352,1.3085377363897859
1695804843039052500,7.442052490234375,2.090786868613958,1.5371809261947869,1.6595619819775222
1695804843049051600,7.4520517578125,2.28427822714746,1.4015812001377344,1.980234636182338
1695804843059051500,7.462051513671875,2.46760825715065,1.2401844772621988,2.277933242034912
1695804843069050600,7.472050537109375,2.523186936509609,1.0302724375426768,2.574806941370666
1695804843079050500,7.482050537109375,2.4305787954390046,0.7770502484068275,2.6944612025380135
1695804843089049600,7.492049560546875,2.154352455073595,0.5633335557073355,2.576650815671682
1695804843099048700,7.502048583984375,1.5174983206033705,0.38909576369822024,2.304828993875533
1695804843109048600,7.512048583984375,0.642334027186036,0.26884967411756516,1.7551980925671755
1695804843119047700,7.522047607421875,-0.35628479646444317,0.14968962620794773,0.9547668224424123
1695804843129047600,7.532047607421875,-1.3912339936465024,0.04980886378586292,0.17841770804226398
1695804843139046700,7.542046630859375,-2.230443176585436,0.04018675669878721,-0.322134981842339
1695804843149045800,7.552045654296875,-2.7087983554482458,0.04652151267826557,-0.4251844374284148
1695804843159045600,7.562045654296875,-2.8218261842131613,-0.03609919512420893,-0.299997384314239
1695804843169044700,7.572044677734375,-2.5669237869054076,-0.1666281937882304,-0.17033260126411914
1695804843179044600,7.582044677734375,-2.144628348916769,-0.24098200850486753,-0.06281885974556208
1695804843189043500,7.59204345703125,-1.8592291065365074,-0.33116438373327256,0.1071224041134119
1695804843199043600,7.602043701171875,-1.670191220280528,-0.47668169269263744,0.27153321411311626
1695804843209042400,7.61204248046875,-1.5990157433390617,-0.5603469411119818,0.30760873610079287
1695804843219041500,7.62204150390625,-1.572597107490897,-0.5385007277458906,0.2384042669713497
1695804843229041700,7.632041748046875,-1.5671172147750854,-0.4583358886629343,0.11623773072212934
1695804843239040500,7.64204052734375,-1.6383523129492996,-0.4068026853024959,-0.08919190288633108
1695804843249040600,7.65204052734375,-1.6895383103072643,-0.39837154156565663,-0.39276480759978294
1695804843259039700,7.662039794921875,-1.6474135712832212,-0.3798635327115655,-0.6635641544803976
1695804843269038600,7.67203857421875,-1.4905138675659895,-0.40395051074177024,-0.8146572177454828
1695804843279038700,7.682038818359375,-1.1475164226979016,-0.36588907563388345,-0.8103463688090443
1695804843289037800,7.692037841796875,-0.7019435694962739,-0.3942059463188052,-0.6839490631222724
1695804843299037700,7.70203759765625,-0.263034850358963,-0.43362464125454425,-0.5036211375445128
1695804843309036800,7.712036865234375,-0.026489362996816635,-0.3768292795822024,-0.3644692719638347
1695804843319036700,7.72203662109375,-0.04407236596047878,-0.33491993687450883,-0.2669651755452156
1695804843329035500,7.732035400390625,-0.21866437823474405,-0.26908260609060525,-0.12603124885335565
1695804843339034600,7.74203466796875,-0.5495949532121419,-0.0759063048556447,0.03949716699942946
1695804843349034500,7.752034423828125,-0.9125169957339763,0.11047931332588196,0.14070859350338577
1695804843359033600,7.76203369140625,-1.2047691727489231,0.2585600430324673,0.1487180046968162
1695804843369033500,7.772033447265625,-1.3657143524646758,0.5674073810175061,0.030569764178246257
1695804843379032600,7.782032470703125,-1.4297481409579516,0.8997253187000751,-0.19066899458914993
1695804843389031700,7.79203173828125,-1.4283862049549818,1.0625523666396737,-0.3427174588829279
1695804843399031600,7.802031494140625,-1.133112049770355,1.076399105684459,-0.32480756205245853
1695804843409030700,7.81203076171875,-0.5974293020546436,1.0914268712073565,-0.2794406262367964
1695804843419030800,7.82203076171875,-0.14817863712310791,1.2222452082067727,-0.2682845875807106
1695804843429029600,7.832029541015625,0.05548164872527122,1.2527215950131416,-0.10966638950780033
1695804843439029800,7.84202978515625,0.0785579884082079,1.195340250146389,0.13597995754629372
1695804843449028600,7.852028564453125,0.08092121040821075,1.2314072965666651,0.1619336062312126
1695804843459027500,7.86202734375,-0.1163116727411747,1.4027408915668724,-0.06380933208763599
1695804843469027600,7.872027587890625,-0.43290392576456066,1.5653765085875988,-0.21653657242581248
1695804843479026400,7.8820263671875,-0.7323965754270553,1.68246822579056,-0.3064908379867673
1695804843489026600,7.892026611328125,-1.0046966822594403,1.7697627706229686,-0.40242461634874344
1695804843499025700,7.902025634765625,-1.1912509350061415,1.8690972973391413,-0.5190851025275885
1695804843509024500,7.9120244140625,-1.2078975339025257,1.9769038843244313,-0.5377972556516528
1695804843519024600,7.922024658203125,-1.075694464546442,1.9602420878589153,-0.33894027843177316
1695804843529023700,7.932023681640625,-0.7980144182413816,1.8780352215543388,0.013119301553070544
1695804843539023600,7.942023681640625,-0.3752589615255594,1.8628174864172935,0.48021585816815493
1695804843549022700,7.952022705078125,0.09082184217572212,1.892458883704245,1.0075624469541014
1695804843559022600,7.962022705078125,0.4391986419945955,1.8699550832122562,1.5095204735919832
1695804843569021700,7.972021728515625,0.6132955642282962,1.8192080617934465,1.9043543425507843
1695804843579020500,7.9820205078125,0.7656254758119583,1.7045529240876436,2.1670707746103406
1695804843589020700,7.992020751953125,0.7639934906959533,1.6086992252245544,2.237628411914408
1695804843599019500,8.00201953125,0.5555950704097747,1.498752703601122,2.246046257778257
1695804843609019400,8.012019287109375,0.2656996856540441,1.3744935789868236,2.156008697848022
1695804843619018500,8.0220185546875,-0.07774082680642605,1.205090367527306,1.9291979841671882
1695804843629017600,8.032017578125,-0.40380058087706566,1.0410440069258213,1.6630582996606826
1695804843639017500,8.042017578125,-0.6678092447042465,0.9385217900842427,1.4604410931244491
1695804843649016600,8.0520166015625,-0.8357078968197107,0.8295888294175267,1.3746500847227872
1695804843659016700,8.0620166015625,-0.9183142838358879,0.7518012408599257,1.3203504853889345
1695804843669015600,8.072015625,-0.9246312118977308,0.6943968073785305,1.2868969824679195
1695804843679015700,8.082015625,-0.9419225384384393,0.5844996778547763,1.1750175930857658
1695804843689014800,8.092014892578124,-1.0816180093765257,0.403781291654706,1.112947067489475
1695804843699013600,8.102013671875,-1.2567051116913557,0.2758852718427777,1.1409329526543617
1695804843709013800,8.112013671875,-1.4535007724672555,0.2293532377704978,1.1164717344842852
1695804843719012600,8.1220126953125,-1.6770891631007194,0.20425883626341818,1.0591915119044482
1695804843729012700,8.1320126953125,-1.8314882821738718,0.2367164600148797,1.094174708610773
1695804843739011600,8.142011474609374,-1.8899591758430003,0.28850480718016625,1.0751591886259615
1695804843749011500,8.152011474609376,-1.8822715439498423,0.3967492010608315,1.1251871019899844
1695804843759010600,8.162010498046875,-1.8185370306640862,0.3770265557199716,1.221403788946569
1695804843769009700,8.172009765625,-1.727782408505678,0.2805263756468892,1.2645989336811005
1695804843779009500,8.182009521484375,-1.5748615452915429,0.2858303272739053,1.3088017941534518
1695804843789008600,8.192008544921874,-1.3836743720471858,0.2857660298660397,1.449930951156467
1695804843799008500,8.202008544921876,-1.1548346367567777,0.24996961708068846,1.593499171874672
1695804843809007600,8.212007568359375,-0.8553764738857745,0.241255272488296,1.7053760770387947
1695804843819006700,8.2220068359375,-0.5947112752676009,0.19917904878109693,1.7467013362482189
1695804843829006600,8.232006591796875,-0.3524813125282526,0.07684358570575714,1.7303864535242317
1695804843839005700,8.242005615234374,-0.057331075984239574,-0.006034896250069141,1.7473308663234113
1695804843849005800,8.252005859375,0.19480536374151705,-0.044618893927335736,1.805444178726524
1695804843859004400,8.26200439453125,0.3033341275215149,-0.038169279396533966,1.8685696202032267
1695804843869004800,8.2720048828125,0.2572486681729555,-0.013972703512012958,1.9316833712421357
1695804843879003600,8.282003662109375,0.043936172360181804,0.002261222930252552,1.9073665299788116
1695804843889002500,8.29200244140625,-0.27472587267458437,0.04962736973911523,1.7331141249224542
1695804843899002600,8.302002685546874,-0.5451806439012289,0.11525807203501462,1.6017119966857134
1695804843909001500,8.31200146484375,-0.6932464682996272,0.2171215327069163,1.5489103808246552
1695804843919001600,8.322001708984375,-0.6900982334017753,0.30135405962020156,1.4607795312985776
1695804843929000700,8.332000732421875,-0.6431786613166331,0.2820478861257434,1.348077719617635
1695804843938999600,8.34199951171875,-0.4984557176053524,0.2580088388904929,1.132672197048366
1695804843948999700,8.351999755859374,-0.30622517278790473,0.20632424436062574,0.9219362737253308
1695804843958998800,8.361998779296876,-0.10834288581907749,0.1848252369970083,0.815219381672889
1695804843968998700,8.37199853515625,-0.0163344642072916,0.1277639178648591,0.7270033380813896
1695804843978997800,8.381997802734375,0.03934299935102462,0.051097734552621836,0.6476414859443903
1695804843988996600,8.39199658203125,0.04488368234336376,-0.02063362270593643,0.6429381305590272
1695804843998996700,8.401996826171874,0.06658756462931632,-0.029077333663403985,0.6814509626962244
1695804844008995600,8.41199560546875,0.09420447035133839,-0.057793432798981664,0.6847035347513855
1695804844018995500,8.421995361328126,0.09870353533625602,-0.1328074649900198,0.708918669205904
1695804844028994600,8.43199462890625,0.06261807647645473,-0.22040713024884462,0.5904995027914643
1695804844038994400,8.441994384765625,0.032496494457125664,-0.31312749952226876,0.3912634631261229
1695804844048993500,8.45199365234375,0.11665887874364853,-0.32665129022300243,0.22655659278929233
1695804844058992600,8.46199267578125,0.19740823971629143,-0.3659259005129337,0.18469459635466337
1695804844068992500,8.471992431640626,0.22004911059141158,-0.39725978093147274,0.25271847739741204
1695804844078992000,8.481991943359375,0.19871523066163063,-0.3853872645691037,0.41794308799803254
1695804844088992000,8.491991943359375,0.2109159560650587,-0.37991789324730635,0.6970018753103912
1695804844098990800,8.501990966796875,0.1074532435029745,-0.3417515364602208,0.9854267491221428
1695804844108990000,8.511989990234374,-0.0937070422232151,-0.3106646165400743,1.0825878773219884
1695804844118989800,8.52198974609375,-0.24332594128251075,-0.3531573120936751,0.9657140406534075
1695804844128989000,8.531989013671875,-0.27465163839459417,-0.4730696396753192,0.7424456757545471
1695804844138989000,8.541989013671875,-0.3749041567385196,-0.53640375546664,0.5630982856467366
1695804844148988000,8.55198779296875,-0.4663584515988827,-0.5270204255715012,0.5096944661088287
1695804844158988000,8.561988037109375,-0.5778168390899896,-0.5499290074720978,0.49772082745954394
1695804844168987100,8.571987060546874,-0.8083721461266279,-0.5285735002323985,0.23614392082393168
1695804844178986000,8.581986083984376,-1.0587889224529266,-0.5339204142183065,0.1657572561725974
1695804844188986000,8.591986083984375,-1.2342203081607819,-0.6201382697299123,0.2906708991728723
1695804844198985200,8.601985107421875,-1.0576666404247284,-0.5107204481557012,0.2456514616206288
1695804844208985000,8.611985107421875,-0.7686796026855707,-0.39751638604104517,0.11711904360130429
1695804844218984000,8.62198388671875,-0.5094213482558727,-0.3869602129742503,0.12035729487016797
1695804844228983000,8.631983154296876,-0.28944062672555443,-0.2576195473119616,0.1876188132382929
1695804844238983000,8.64198291015625,-0.1745423279136419,0.009330430664122103,0.2648286019079387
1695804844248982000,8.65198193359375,-0.24294892466366289,0.2629234989389777,0.3543677107967436
1695804844258982000,8.66198193359375,-0.3037818712890148,0.44389498311728237,0.4676986141614616
1695804844268981000,8.67198095703125,-0.1702688883781433,0.6560811052486301,0.47622021266072984
1695804844278980900,8.68198095703125,0.01699848107397556,0.7038520334661007,0.5259560112103819
1695804844288980000,8.69197998046875,0.09850888954699039,0.6147215053781867,0.4861028703801334
1695804844298979000,8.70197900390625,0.12699381027519702,0.5670376709222793,0.4861844111837446
1695804844308979000,8.71197900390625,0.33725393278002735,0.60014031457901,0.8029651725165545
1695804844318978000,8.72197802734375,0.6425678359419107,0.5909437394276261,1.2983351990662515
1695804844328978200,8.731978271484374,0.8342980300217866,0.5760068670585751,1.6011789127223193
1695804844338977000,8.74197705078125,0.8934253417730331,0.6526993538558483,1.6396745014637708
1695804844348975900,8.751975830078125,0.6933528512835502,0.7202548867344856,1.4716881710648535
1695804844358976000,8.76197607421875,0.1454647019892931,0.8216983684286475,1.162662700033933
1695804844368974800,8.771974853515625,-0.4908382283389568,0.8719839098155499,0.6862240223169327
1695804844378975000,8.78197509765625,-0.8388859423339367,0.7999065155982971,0.5284470973737537
1695804844388973800,8.791973876953126,-0.837546218162775,0.7512135040998459,0.4790555822171271
1695804844398974000,8.801973876953125,-0.683399612545967,0.724631202122569,0.2463784607209265
1695804844408973000,8.81197314453125,-0.5026403098136186,0.6478560054779052,0.20742928299307822
1695804844418972000,8.821971923828125,-0.32342589843571184,0.5534074972376227,0.24477760139554738
1695804844428972000,8.831971923828124,-0.055446577411890026,0.49816521022617816,0.33291838779374955
1695804844438971100,8.84197119140625,0.3031587709546089,0.4671811661586165,0.5966634322486818
1695804844448971000,8.851970947265626,0.6457873825103044,0.5130585357144475,0.6701546387866139
1695804844458970000,8.86197021484375,0.7563900299549102,0.5155982833251357,0.4971507724866271
1695804844468969200,8.87196923828125,0.797586548218131,0.38062604151666163,0.18903861690834164
1695804844478969000,8.881968994140625,0.8837596878051758,0.23578180951327085,-0.11355009907335042
1695804844488968000,8.891968017578124,0.8773568350255488,0.05116086291670799,-0.24492606995552776
1695804844498967800,8.9019677734375,0.7335930917352438,0.0339697818800807,-0.2940849454000592
1695804844508967000,8.911966796875,0.5366179827392101,0.09846300457865,-0.44171500872969627
1695804844518967000,8.921967041015625,0.11289514229595661,0.11894026767909525,-0.4440219704978168
1695804844528966000,8.9319658203125,-0.2925491141349077,0.14375234511345625,-0.12633081632182
1695804844538965000,8.941965087890624,-0.45075873140692707,0.2892141244933009,0.12628390844017268
1695804844548964900,8.95196484375,-0.40266427032351493,0.39624972710609435,0.2955021187216043
1695804844558964000,8.9619638671875,-0.28226328244209287,0.4881082188531756,0.4328805448889732
1695804844568964000,8.971964111328125,-0.2063800662010908,0.4710027702733874,0.3735487966068089
1695804844578963000,8.981962890625,-0.11428221274018287,0.28958588041514155,0.17138313323035836
1695804844588962000,8.991962158203124,0.06984393607676029,0.10604425348788499,-0.19528817882239818
1695804844598962200,9.001962158203124,0.130994278088212,0.002882277438044548,-0.5402181991882622
1695804844608961000,9.0119609375,0.05365092616677284,-0.07873860567212104,-0.7510701501064002
1695804844618961200,9.021961181640625,-0.03493336621522903,-0.12387801634222269,-0.8425484103642403
1695804844628960000,9.0319599609375,-0.033365678507089616,-0.03134089468121529,-0.734618343129754
1695804844638959900,9.0419599609375,0.12739888394474982,0.010824760875105857,-0.46903921511545776
1695804844648959000,9.051958984375,0.38098376891314983,-0.056881870912015436,-0.30826281609535217
1695804844658958000,9.0619580078125,0.7475497208952904,-0.12515168953984976,-0.049080695641785854
1695804844668958000,9.0719580078125,1.0370803639918564,-0.030011107382178305,0.1372900172315538
1695804844678957000,9.08195703125,1.143728136330843,0.1515939985245466,0.1727376165792346
1695804844688957000,9.09195703125,1.0789753859132527,0.15930354998856783,0.04821384967938065
1695804844698956000,9.1019560546875,0.9700590841203928,0.06799070942550897,-0.10728095567598939
1695804844708955100,9.111955078125,0.9291881445497274,-0.04337210873663425,-0.22833353933393954
1695804844718955000,9.121955078125,1.0093068064033985,-0.2174380513101816,-0.45978243420943615
1695804844728954000,9.1319541015625,0.9212281254559754,-0.3087003307297826,-0.693520170674473
1695804844738954000,9.1419541015625,0.7818512189477682,-0.329460794685781,-0.8100071999825537
1695804844748953000,9.151953125,0.8077870397150516,-0.25406068578660485,-0.7058328320197761
1695804844758953200,9.161953125,1.0245412004143,-0.08861381073743105,-0.4497517463214695
1695804844768951800,9.171951904296876,1.30817109503448,0.04889233346283436,-0.14323592002391813
1695804844778951000,9.181950927734375,1.4599328513413667,0.17017010417878628,0.2642896727256477
1695804844788951000,9.191950927734375,1.687205483445525,0.30880554466992616,0.38683950920403004
1695804844798950000,9.201949951171875,1.8702526048541068,0.22533815691024064,0.08538213533982635
1695804844808950000,9.211949951171874,1.8750930306226015,0.002831716294586658,-0.483888847592473
1695804844818948900,9.221948974609376,1.6860387777537107,-0.26954145577400923,-0.8861400070704519
1695804844828948000,9.231947998046875,1.5504314529120922,-0.46731063775718207,-0.9366928210914135
1695804844838948000,9.241947998046875,1.810629618540406,-0.4834864042714238,-0.4823442484989762
1695804844848947000,9.251947021484375,2.503335988613963,-0.02765986808091402,0.26388810618743297
1695804844858947000,9.261947021484374,3.6031156776249404,0.5314443794935941,1.1956947626724839
1695804844868946200,9.2719462890625,3.848936358332634,0.06042407356351614,1.8747637986682355
1695804844878946000,9.281946044921876,2.9559049843132494,-0.8391007541283965,2.008526664686948
1695804844888945200,9.291945068359375,3.588219721788168,-0.2806242830634117,1.1963925356782972
1695804844898944000,9.301944091796875,3.9039807846844194,-0.45963118917047974,0.7682404806159436
1695804844908944000,9.31194384765625,3.9605554893434047,-1.6738924128860235,1.0482556918703019
1695804844918943000,9.32194287109375,3.9896594187527894,-2.5206176705434915,1.6839625560015439
1695804844928942800,9.33194287109375,4.166969457814097,-2.7126260970428584,2.3182065079733727
1695804844938942000,9.34194189453125,4.401096193596721,-2.4108538120105862,2.7119042125090953
1695804844948941000,9.351941162109375,4.673056693211198,-2.1976567592710254,3.014601503431797
1695804844958941000,9.36194091796875,5.029360778898001,-2.4324258846104145,3.395200949202478
1695804844968940000,9.37193994140625,5.435996875461936,-2.8542209718614817,3.8612043037533756
1695804844978940000,9.38193994140625,5.734033481097221,-2.864390191437304,4.137186313968897
1695804844988939000,9.39193896484375,5.718781551429629,-1.9389286661952734,4.074313093687594
1695804844998939100,9.401939208984375,5.4723044526398175,-0.39108869108110667,3.720820558290183
1695804845008938000,9.41193798828125,4.7557659560799594,0.937407983623445,3.416725091007352
1695804845018936800,9.421936767578124,3.825119429415464,1.8301324836507438,2.7940730848908424
1695804845028937200,9.431937255859374,3.4462112977325914,2.5635841210886836,2.6019173588752746
1695804845038935800,9.441935791015625,3.1930554518312215,3.0851869055256245,3.5491108234539626
1695804845048936000,9.45193603515625,3.6819197497487064,3.445217610520124,3.382082232171297
1695804845058935000,9.46193505859375,5.40253007466793,3.2095956677436828,2.309256601059437
1695804845068934000,9.471933837890624,7.02446959747672,2.9934841888621446,1.8177505564615128
1695804845078933500,9.48193359375,7.903679951414466,2.891001719509065,2.3533023712739345
1695804845088932600,9.4919326171875,8.481818862065673,3.0259906201913953,3.059370619484782
1695804845098932500,9.501932373046875,8.832969218251108,3.375914941713214,3.319259280772507
1695804845108931300,9.511931396484375,9.020275750669837,3.599706161442399,3.550092820228636
1695804845118931200,9.52193115234375,9.242253783497214,3.6757056975394486,3.192181299345195
1695804845128930300,9.531930419921874,9.273465498840809,4.251807549405098,2.0062097660467026
1695804845138929400,9.541929443359376,8.945567423427104,5.754589362391829,2.2053686488226054
1695804845148929300,9.55192919921875,8.557573483490943,6.985401907935739,3.0424954725295303
1695804845158928400,9.561928466796875,8.16156574844718,6.958450772646069,2.537433780787885
1695804845168928500,9.571928466796875,7.3996613389849655,6.130671330738068,2.080847366140783
1695804845178927400,9.58192724609375,6.493159658017754,5.229774045649171,2.5186171443760395
1695804845188926500,9.591926513671876,6.074136373567581,4.365099582064151,2.827873063161969
1695804845198926300,9.60192626953125,5.870996896722913,3.8717122537642714,3.931472310461104
1695804845208925400,9.611925537109375,5.423066666740179,3.84480320405066,4.386012313972413
1695804845218925600,9.621925537109375,4.286273882630467,4.0194191817224025,2.62216110548079
1695804845228924400,9.63192431640625,2.3940754034280776,4.364650669252872,0.9785600782230496
1695804845238924500,9.641924560546874,0.08017243786752223,4.876446929946542,-0.29950960079729555
1695804845248923400,9.65192333984375,-2.2424767287284135,5.774177275437117,-0.8797218105912208
1695804845258922200,9.661922119140625,-3.2889579582720994,6.1989808968544,-1.1861539041280746
1695804845268922400,9.67192236328125,-2.793060692977905,6.011449323508143,-2.220949956575036
1695804845278921500,9.68192138671875,-1.5374743561834097,4.684553654259443,-3.2279403027296065
1695804845288921300,9.69192138671875,-1.0052630839705468,2.046832576075196,-2.9712726493149995
1695804845298920400,9.70192041015625,-2.8626790036052463,0.0037806875824928283,-3.0112206288218495
1695804845308919600,9.71191943359375,-6.252634745630622,0.04149813155829906,-3.5223604714334007
1695804845318919400,9.72191943359375,-9.621127428388595,0.8941270603016018,-4.508904241886735
1695804845328918500,9.73191845703125,-12.621076137089728,1.2512050529703498,-5.892212703230976
1695804845338918400,9.74191845703125,-15.171548555409908,0.5788292310029268,-6.854745483499765
1695804845348917500,9.75191748046875,-16.178615473932027,-0.8359113104373216,-6.104179629653692
1695804845358917400,9.76191748046875,-14.738113883769511,-1.5370494087696074,-4.116643876677752
1695804845368916500,9.77191650390625,-11.620624837315082,-0.661243310317397,-2.675794495990872
1695804845378915300,9.781915283203125,-8.972407499557733,0.007852467066049576,-0.5147855056375265
1695804845388915200,9.791915283203124,-8.078393544241786,-0.29379706836938857,1.2990484619021414
1695804845398914300,9.801914306640626,-8.67951351750791,-0.944959421916306,1.6476736835241317
1695804845408914400,9.81191455078125,-9.15628522657156,-0.9659729838505386,-0.31058102990984915
1695804845418913300,9.821913330078125,-9.377771091967821,-0.7766194557741284,-3.5433816321521996
1695804845428912400,9.831912353515625,-10.120351207756995,-1.893604254347086,-6.372961499232053
1695804845438912500,9.84191259765625,-9.808347451567649,-4.7583375601336355,-4.666947270420193
1695804845448911400,9.851911376953124,-6.025169805824756,-8.061199832856655,1.1926064412683248
1695804845458911500,9.861911376953126,0.5806231286823749,-11.618958949929475,8.68816736408472
1695804845468910300,9.871910400390625,5.3065884052604435,-12.837816853785514,11.415333735394476
1695804845478910500,9.881910400390625,3.7250036891937253,-12.89526717223525,6.389443847477436
1695804845488909600,9.89190966796875,-4.497472747290134,-13.069396243172884,-2.0364269173949956
1695804845498908400,9.901908447265624,-14.004473445761203,-11.572301243650912,-7.34638918300271
1695804845508908500,9.911908447265626,-21.017410426354406,-7.725629907640815,-10.979991184306144
1695804845518907400,9.921907470703125,-26.15866389250755,-4.361916275852918,-13.457298997694252
1695804845528907300,9.9319072265625,-27.982521825933453,-1.8965205801852045,-12.34020284770131
1695804845538906400,9.94190625,-24.92274847086668,0.9559458030939102,-8.359816868728398
1695804845548905500,9.951905517578124,-17.546681942480802,2.7261607013985514,-4.341807261542976
1695804845558905300,9.9619052734375,-8.796817708417773,2.193319899110496,-1.3253987086892127
1695804845568904400,9.971904541015626,-0.5331821630716324,1.000313060347736,-0.8275923949033022
1695804845578904300,9.981904296875,5.229105937129259,-1.6134785684555768,-2.324334343203902
1695804845588903400,9.9919033203125,9.022284752404689,-4.571609996646642,-3.755498488439619
1695804845598903300,10.0019033203125,11.477578302383423,-4.378254831713438,-4.789823123982549
1695804845608902400,10.01190234375,10.558352164399624,-3.2547324480652806,-5.439164399582148
1695804845618901500,10.021901611328126,6.234798644688725,-2.448284547999501,-4.5897678768888115
1695804845628901400,10.0319013671875,2.420044541943073,-0.3206532188519835,-2.9556963099986313
1695804845638900500,10.041900390625,0.13791677082777024,2.0738275505065915,-1.1920154896378516
1695804845648900600,10.051900634765625,-0.0019569792866706848,4.2367184090837835,-0.9267395823538302
1695804845658899200,10.061899169921874,-0.29442893653213975,2.702026084834337,-1.132608776423335
1695804845668898300,10.071898193359376,-0.18932430198192596,-1.2292501185327767,-0.16462357596755026
1695804845678898400,10.0818984375,1.110111113411188,-1.4683920521289109,0.7563692794278264
1695804845688897300,10.091897216796875,2.496453827884793,0.7993044580519199,1.1556930071517824
1695804845698897400,10.1018974609375,1.9627683914661407,2.2303198424667117,1.716527147258818
1695804845708896500,10.111896484375,1.1297954725682735,2.4899989526569843,2.049781489008665
1695804845718895400,10.121895263671876,1.726117105641961,2.380532908026874,1.9903408735245465
1695804845728895500,10.1318955078125,4.263417323178053,2.561876732648909,2.2238006698310375
1695804845738894300,10.141894287109375,6.989401791226864,2.7383354155778883,3.842270762963593
1695804845748894500,10.15189453125,8.195500166752934,3.4118995705470443,5.375066313681006
1695804845758893600,10.1618935546875,7.9147630709648125,5.267846878933907,4.391828306774795
1695804845768893400,10.1718935546875,4.641215447792411,6.134197166776657,1.5347417163491248
1695804845778892500,10.181892578125,-0.27169980285167694,6.175590668916702,-0.7994652015715837
1695804845788891400,10.191891357421875,-3.97139953944087,6.60600102429986,-2.3305124473169445
1695804845798891300,10.201891357421875,-5.96473608765006,6.9442895608246324,-3.669195584993064
1695804845808890400,10.211890380859375,-6.568554213958978,6.999785238075256,-4.743628359040618
1695804845818890200,10.22189013671875,-6.178901400899886,7.2486840110540385,-4.467484144000709
1695804845828889300,10.231889404296876,-3.829614402747154,7.885367465132474,-2.7961075133278963
1695804845838888400,10.241888427734375,-0.8762345529973506,7.810704730597138,-1.5350053357213735
1695804845848888300,10.251888427734375,2.2522458430707455,6.208841781133413,-0.1522203137293458
1695804845858887400,10.261887451171875,4.964557759597898,2.671408243730664,0.18394027085602283
1695804845868887600,10.271887451171875,5.727586204653978,0.9745666246727108,-1.1896265486747026
1695804845878886400,10.281886474609376,6.381875458049774,1.9989310072153805,-1.8943034886576233
1695804845888886500,10.291886474609376,8.294583056795597,3.166895759180188,-0.3969622592896223
1695804845898885400,10.301885498046875,9.236708424329757,3.241586843027174,3.47046866389364
1695804845908884500,10.311884521484375,4.423804869011044,1.7601695973694322,6.16923516241014
1695804845918884600,10.321884521484375,-3.4186481680244207,-0.5240639138534665,4.377061822536588
1695804845928883200,10.33188330078125,-23.606344385015962,-12.967194928848743,-4.081615817916393
1695804845938883300,10.34188330078125,-33.97755602121353,-12.059509591054915,-3.962054203468561
1695804845948882400,10.35188232421875,-26.08359725334644,5.990339315462112,2.037849643674493
1695804845958882300,10.36188232421875,-19.11081458848715,9.667423315617441,2.5835633715391157
1695804845968881400,10.37188134765625,-9.21001330962777,2.393175093587488,3.2326758068189023
1695804845978880500,10.381880615234374,6.3738230844974515,0.11806582293212413,5.711570889398455
1695804845988880400,10.39188037109375,15.145572402632236,2.8695968201696873,5.317689060467481
1695804845998879500,10.40187939453125,14.174494496858118,4.474619402708113,3.4780931674227116
1695804846008879400,10.41187939453125,13.24471423163414,5.133635976886749,1.3426331904761493
1695804846018878500,10.42187841796875,10.860456457865238,3.4263822694078088,-0.14828691980317235
1695804846028877600,10.431877685546874,4.098482781565189,-1.0597525067880749,-1.2727252492524683
1695804846038877400,10.44187744140625,-2.9624492913901803,-2.6550509831696747,-1.9931921713024376
1695804846048876500,10.45187646484375,-7.217265374961495,-0.4409054459124803,-1.702355121782422
1695804846058876400,10.46187646484375,-8.157920085421203,1.6422427445165813,-0.7478940042883158
1695804846068875300,10.471875244140625,-6.793906691655517,1.8691748926199971,0.41495764244645833
1695804846078875600,10.481875732421875,-4.066784159487486,1.36397189271152,1.0621024309150875
1695804846088874500,10.49187451171875,-1.2652625121563672,0.8574583947263658,0.9120179601706564
1695804846098873600,10.50187353515625,0.1825245588392019,0.8673292158775031,-0.04313084732666611
1695804846108873700,10.511873779296875,1.0203238749802113,0.4863881170623004,-0.46668052316009995
1695804846118872600,10.52187255859375,1.719776212182641,-0.6794277863055467,-0.8648137259252369
1695804846128872700,10.531872802734375,1.7557547035366297,-1.5065823743134736,-1.7644015358507632
1695804846138871600,10.54187158203125,1.4958733487725258,-1.724404748766124,-2.2657621811173856
1695804846148870700,10.55187060546875,1.3946096075594425,-1.4692504225239156,-2.3438142658300696
1695804846158870800,10.561870849609376,1.310567634782195,-0.9342422130689024,-2.4743510094091294
1695804846168869600,10.57186962890625,0.8053010681182146,-0.27692396724075075,-2.0062715792365373
1695804846178869800,10.581869873046875,0.06392857455313206,0.009732873985171317,-0.4963353644505143
1695804846188868600,10.59186865234375,-0.9102811995059251,-0.02150894423574209,0.6027830841727554
1695804846198867500,10.601867431640626,-2.120196502971649,-0.16144465367048977,0.849146639585495
1695804846208867600,10.61186767578125,-3.0016964291512966,-0.2627761994227767,0.5259181634180248
1695804846218866700,10.62186669921875,-3.173488581573963,0.1674646446123719,0.18178221603929995
1695804846228866600,10.631866455078125,-2.2053537435144186,0.4519733678936958,0.4495287512205541
1695804846238865700,10.64186572265625,-0.31503859384059907,0.2139081236183643,0.6835150556191801
1695804846248865500,10.651865478515624,1.8720739750623703,-0.11414572687894105,0.9813365571990609
1695804846258864600,10.66186474609375,3.16219211153388,0.1838353491768241,2.004071584974229
1695804846268863700,10.67186376953125,2.8110715659648178,1.2600778029948472,3.4303134713768957
1695804846278863600,10.681863525390625,1.735721969333291,1.667505634458363,3.6523458647400138
1695804846288862700,10.69186279296875,0.34542788688540454,1.2104290982067585,2.3832544419452546
1695804846298862600,10.701862548828124,-0.7996475724011659,0.6281558642297983,1.3583447004795073
1695804846308861700,10.71186181640625,-1.2706208243191242,0.3368085271000862,0.6530358923338353
1695804846318860500,10.721860595703125,-1.0436357769846916,0.14941227057129144,0.08808525681868196
1695804846328860400,10.7318603515625,-0.01080021095573902,-0.05990998656153679,-0.18456585540845988
1695804846338859500,10.741859619140625,1.2115718385010956,-0.16936784788519144,-0.7334079444266856
1695804846348859600,10.751859619140625,2.0428782854914664,-0.4622241282731294,-1.3969558784246443
1695804846358858500,10.7618583984375,2.39401519767344,-0.989538568355143,-1.423929371676594
1695804846368858600,10.771858642578126,1.856492375048995,-1.117644139264524,-0.9908625104352832
1695804846378857700,10.781857666015625,0.7920499568790197,-0.7361749249219894,-0.23050810689404605
1695804846388856600,10.791856689453125,-0.04344868110418319,-0.4381824506893754,0.025975568255782126
1695804846398856700,10.801856689453125,-0.5944564237236977,-0.4188528963193297,0.1707265690177679
1695804846408855600,10.81185546875,-0.6810679547280073,-0.329809461992979,0.7322587743915617
1695804846418855700,10.821855712890626,-0.42796354675292964,-0.03734101187884807,0.8182721933722495
1695804846428854800,10.831854736328125,-0.062333414316177366,0.23120880250930784,0.6146094233058392
1695804846438853400,10.841853271484375,-0.02158990051746368,0.37457945482879873,0.40754195936247706
1695804846448853800,10.851853759765625,-0.31253216397762296,0.4314236240789294,0.38669469390586014
1695804846458852600,10.8618525390625,-0.38749008206725116,0.26625819631963965,0.43473289475739
1695804846468852500,10.8718525390625,-0.5162006331324577,-0.11137246277332305,0.23084844476431607
1695804846478851600,10.8818515625,-0.5465519322544335,-0.29647900092974305,0.21132176038697362
1695804846488851500,10.8918515625,-0.3464589834988117,-0.2921405333340168,0.37831140789873896
1695804846498850600,10.9018505859375,-0.14814064320027828,-0.2853906206823885,0.29587409383915364
1695804846508849700,10.911849609375,0.04795709843933582,-0.3717572370149195,0.0671685793876648
1695804846518849500,10.921849609375,0.09512509232759475,-0.35637510509639975,-0.31355997265540064
1695804846528848600,10.9318486328125,-0.09259411254525184,-0.35552082635462284,-0.5701329335238784
1695804846538848500,10.9418486328125,-0.32105040147602554,-0.2658728502638638,-0.5169589772190898
1695804846548847600,10.95184765625,-0.49685821928083895,0.06354761241152883,-0.1707051609035581
1695804846558846700,10.9618466796875,-0.5619955851018429,0.32110856140404936,0.2534326170161366
1695804846568846600,10.9718466796875,-0.5835597666561603,0.1932974433965981,0.4886917908947915
1695804846578845400,10.981845458984376,-0.4199100041568279,-0.026619711378216743,0.8029759131062776
1695804846588845800,10.991845703125,0.005547112733125686,0.012973609472066163,1.0171824351493268
1695804846598844400,11.001844482421875,0.3851321207642555,0.21701763394102452,1.0655774135492742
1695804846608844500,11.011844482421875,0.49265784498155113,0.15413316161334514,1.2223592630404978
1695804846618843600,11.02184375,0.34593408284187316,0.036052433373034,1.3320260178744792
1695804846628842500,11.031842529296876,-0.021944120782613753,0.0807939307667315,1.1672823226585984
1695804846638842600,11.041842529296876,-0.47952422264218325,0.07991305627897381,0.8008613321051001
1695804846648841700,11.051841796875,-0.6453495756149291,-0.10279475017264485,0.3583043195933103
1695804846658841600,11.061841552734375,-0.5602659848302602,-0.18271598975807427,0.04530629166960716
1695804846668840700,11.0718408203125,-0.5900473751097918,-0.17671616482138633,-0.21969123706445096
1695804846678839800,11.08183984375,-0.6307838746458292,-0.14220175467059015,-0.33019436965733767
1695804846688839700,11.091839599609376,-0.5420633886635303,-0.014942717587947844,-0.2540224726680666
1695804846698838800,11.1018388671875,-0.37713586131334303,0.06502689118385314,-0.1958615947961807
1695804846708838700,11.111838623046875,-0.2065022312760353,0.025436931334435937,0.009414674881473182
1695804846718837500,11.12183740234375,-0.029759762969613072,-0.05113076003938913,0.1966723997224122
1695804846728837600,11.131837646484374,0.09577858780026435,-0.06385784740447997,0.401378176035732
1695804846738836500,11.14183642578125,0.27690672384500503,-0.0542852785475552,0.5102223624404519
1695804846748835600,11.151835693359375,0.5332733484864235,-0.06603767566159367,0.4280908994596451
1695804846758835500,11.16183544921875,0.6169856509178877,-0.016502660381048917,0.07574855701066553
1695804846768834600,11.17183447265625,0.4746352815568447,0.005146276847273111,-0.28075382772721347
1695804846778834700,11.181834716796875,0.2604641230881214,-0.11320376985371113,-0.44175110295638437
1695804846788833500,11.19183349609375,-0.0019084639698266981,-0.17636925107985735,-0.4076951771628111
1695804846798832600,11.20183251953125,-0.29736966615915295,-0.15663827630206942,-0.20342041267789898
1695804846808832800,11.211832763671875,-0.44482115805149075,-0.11165449458509683,-0.11930318270735442
1695804846818831600,11.22183154296875,-0.36767888166010376,-0.16486483737751842,-0.08245514197722077
1695804846828831700,11.231831787109375,-0.039894203492999075,-0.21629735684245824,0.1251728784583509
1695804846838830600,11.24183056640625,0.35618542774319645,-0.14966887568086384,0.3091432521916926
1695804846848830700,11.251830810546876,0.5441571460723876,-0.07298106505870819,0.3304861922107637
1695804846858829600,11.26182958984375,0.5375614010691643,-0.09941519073694943,0.2258720445912331
1695804846868828400,11.271828369140625,0.4273837010383606,-0.14112944926396012,0.015035145111754536
1695804846878828500,11.28182861328125,0.1705173101812601,-0.13465966872796414,-0.03522146244160831
1695804846888827600,11.29182763671875,-0.13667875346541403,-0.13080343169122935,0.07592669005654752
1695804846898827500,11.30182763671875,-0.27463644082546235,-0.07504851898252964,0.17080233766771852
1695804846908826600,11.31182666015625,-0.27704057935774323,0.04233808951377868,0.295784442794323
1695804846918825700,11.32182568359375,-0.19233400519192217,0.06960442823246121,0.43430071388520297
1695804846928825600,11.33182568359375,-0.18600947834551335,0.01995280083492398,0.4886654143445193
1695804846938824700,11.34182470703125,-0.1579874989539385,0.0714250677883625,0.6079428050234913
1695804846948824600,11.351824462890624,-0.1080985556691885,0.19527049703523516,0.6343286345805973
1695804846958823700,11.36182373046875,-0.08369827390611172,0.10077288895621896,0.3849229349929839
1695804846968823600,11.371823486328125,-0.08925473898947238,-0.06383797366023063,0.15671901338808236
1695804846978822700,11.38182275390625,-0.07354863581359386,-0.092449297247082,0.16169007979892194
1695804846988821500,11.391821533203125,-0.056555999958515166,0.016364274823665616,0.2864181370992213
1695804846998821400,11.4018212890625,-0.08284954812228679,0.04409048613905906,0.35745559380948544
1695804847008820500,11.411820556640626,-0.11100947467982768,-0.00474938648417592,0.3767231888592243
1695804847018820600,11.421820556640625,-0.1269026248604059,-0.07815335313007235,0.26655834830999375
1695804847028819500,11.4318193359375,-0.08242401618659496,-0.12551920767799019,0.21913133815936742
1695804847038818600,11.441818603515625,-0.016682839253544808,-0.09535612460449337,0.03795826699435711
1695804847048818700,11.451818603515624,0.018394903868436813,-0.14936346299350262,-0.10465710997842252
1695804847058817500,11.461817626953126,0.11188801108002662,-0.21054405401274562,-0.027433292783424258
1695804847068817700,11.471817626953126,0.24177403566539285,-0.20770503119453787,0.06683167558349669
1695804847078816800,11.481816650390625,0.2908715363115072,-0.13068535826951264,0.12072042909413576
1695804847088815600,11.491815673828125,0.3146048785984516,-0.09025719403028487,0.3186720549721271
1695804847098815700,11.501815673828125,0.28309271900355815,-0.05072495571747422,0.4327414286792278
1695804847108814600,11.511814697265624,0.16227613605856894,0.032235943824797865,0.384162252818793
1695804847118814700,11.521814697265626,-0.022154548662900925,-0.01126096033528447,0.23802505839541552
1695804847128813600,11.5318134765625,-0.1480786838799715,-0.03439414477199316,0.1087871955204755
1695804847138813700,11.541813720703125,-0.2185270155906677,-0.017037059518694875,0.08626300982758402
1695804847148812500,11.5518125,-0.2557511230915785,-0.05911006835550069,0.11354374239780009
1695804847158811600,11.561811767578124,-0.2903320226073265,-0.0041433834150433535,0.23150493591167032
1695804847168811500,11.5718115234375,-0.20776421403586864,0.07293108843713998,0.3176738377150148
1695804847178810600,11.581810546875,-0.024659224960207938,0.07312120418176055,0.31756935442723333
1695804847188810500,11.591810546875,0.10505728827714919,0.07271072368472814,0.37381132000051437
1695804847198809600,11.6018095703125,0.058494859066605565,0.005764847137033939,0.3225918587643653
1695804847208808700,11.61180859375,-0.10139759672582149,-0.12029255907088518,0.1673368535142392
1695804847218808600,11.62180859375,-0.24004852704703805,-0.1557234995447099,0.040018633590266105
1695804847228807700,11.6318076171875,-0.2962257568210363,-0.09649170450568198,-0.02121953283511102
1695804847238807600,11.6418076171875,-0.19915654468834398,-0.043271863232553005,-0.06882818316295743
1695804847248806700,11.651806640625,-0.028638649985194206,-0.08186609004288911,0.0045207653600722545
1695804847258806800,11.661806884765625,0.16806991702914237,-0.13296908529251814,0.0831939045805484
1695804847268805400,11.671805419921874,0.17350597060322762,-0.14605930688157676,0.013933540545403956
1695804847278804500,11.681804443359376,0.02049216840863228,-0.15343173534572124,-0.1293836280211806
1695804847288804600,11.6918046875,-0.01929214496910572,-0.144016695138067,-0.2241916902888566
1695804847298803500,11.701803466796875,0.057307110586762425,-0.1311265261657536,-0.3008971096329391
1695804847308803600,11.711803466796875,0.11075403861403464,-0.17213468225002287,-0.3906701003428548
1695804847318802700,11.721802734375,0.2516021867185831,-0.227139068852365,-0.24626199473440646
1695804847328802600,11.731802490234376,0.32632103535532947,-0.11527224669083952,-0.011231441979855298
1695804847338801700,11.7418017578125,0.21015140143334865,0.05263385807871818,0.14851057249121366
1695804847348800800,11.75180078125,0.05662321997582912,0.03885463131219148,0.23437106593251228
1695804847358800600,11.761800537109375,-0.03561901039183139,0.04052840974330902,0.32850378622189164
1695804847368799700,11.7717998046875,-0.01976443865597248,0.07754764232188463,0.4266804481398314
1695804847378799600,11.781799560546874,-0.07305705290436744,0.091415131893754,0.4132745116651058
1695804847388798700,11.791798828125,-0.07947393420934677,0.06785480808615683,0.5065696120865643
1695804847398797600,11.801797607421875,-0.0861906752437353,0.06813187146186828,0.5366119913898408
1695804847408797400,11.81179736328125,-0.25813129622638226,0.004970920280367136,0.3827806622672826
1695804847418796500,11.821796630859374,-0.38825814383029933,-0.13050707909315823,0.13432948692552746
1695804847428796400,11.83179638671875,-0.2560147424638271,-0.24659224960207937,-0.03153758629709482
1695804847438795500,11.84179541015625,0.0069265843927860254,-0.261868290797621,-0.06498736289106309
1695804847448794600,11.851794677734375,0.29993279464542866,-0.22172595776244997,0.025619375229254362
1695804847458794500,11.86179443359375,0.5732715968757868,-0.19318769941180944,0.07490487272813916
1695804847468793600,11.871793701171875,0.7031658047676086,-0.15028598466590046,0.049208852066099644
1695804847478793700,11.881793701171874,0.6059668287754059,-0.08270005664899945,-0.0608599076975137
1695804847488792600,11.89179248046875,0.17582769154906272,0.0034109774872660634,-0.1787870528113097
1695804847498792700,11.901792724609376,-0.4002946185827255,0.1478071734622121,-0.08734744406342505
1695804847508791800,11.911791748046875,-0.8436918813109398,0.32839988745599985,0.11529657741449773
1695804847518790700,11.921790771484375,-1.042493621212244,0.33406244326233864,0.16538425814174115
1695804847528790800,11.931790771484375,-0.893783653691411,0.2522653268024325,0.24696298261061309
1695804847538789600,11.94178955078125,-0.5086433496206999,0.1707347523242235,0.5099870923798531
1695804847548789500,11.95178955078125,-0.08161328432559967,0.03030892128497362,0.5609915956910699
1695804847558788600,11.96178857421875,0.222222947499156,-0.1782294919937849,0.3463043774589896
1695804847568787500,11.971787353515625,0.4159755873173475,-0.24774156576767561,0.11261961329020559
1695804847578787600,11.98178759765625,0.45508185530304907,-0.1929484838284552,0.09870791925042867
1695804847588786700,11.99178662109375,0.45805005745887756,-0.19473975115939973,0.16078005228191614
1695804847598786600,12.00178662109375,0.3604980302453041,-0.2919888499036431,0.01034647583886981
1695804847608785700,12.01178564453125,0.24660277099609373,-0.31984234086051583,-0.2321137885250151
1695804847618785500,12.02178564453125,0.2714607333987951,-0.238129541683197,-0.3601234247792512
1695804847628784600,12.03178466796875,0.32629590091407296,-0.20704349854588508,-0.25195165774337946
1695804847638783700,12.04178369140625,0.3189455381512642,-0.2585072899319231,-0.1199517828091979
1695804847648783600,12.05178369140625,0.20920915214717387,-0.20024331701174378,0.019101225506886838
1695804847658782700,12.06178271484375,0.11870412083566188,-0.03394976200535893,0.10952625038474798
1695804847668782600,12.071782470703125,0.0018529343903064726,0.07735913401246071,0.12325959218293428
1695804847678781400,12.081781494140625,-0.12284195129275322,0.07840937371775507,0.03636537177972495
1695804847688780500,12.091780517578124,-0.2151595849841833,0.01134600827023387,-0.15663191962651907
1695804847698780400,12.101780517578124,-0.14587912800908087,-0.020975129619985818,-0.14938348286822437
1695804847708779500,12.111779541015625,-0.07065992863476275,-0.05284779309034347,-0.124383773907274
1695804847718779600,12.121779541015625,0.003402501919865608,-0.11522738463580608,-0.1517640213292092
1695804847728778500,12.131778564453125,0.07010813997089863,-0.21476824757903812,-0.16686565580591559
1695804847738777600,12.141777587890624,0.1372808110117912,-0.30143560042381284,-0.12621610390096902
1695804847748777700,12.15177783203125,-0.00417056368291378,-0.2926440989419818,-0.11118936129137873
1695804847758776600,12.161776611328126,-0.3019002953261137,-0.25077888763695955,-0.11991364275589585
1695804847768776700,12.171776611328125,-0.7133078440755606,-0.1078562713459134,-0.12546689296886324
1695804847778775800,12.18177587890625,-0.9616869770944118,0.08823372537866234,-0.1231679683767259
1695804847788775700,12.191775634765625,-1.0361778621941804,0.13834303341582416,-0.03671802114229649
1695804847798774800,12.20177490234375,-0.752666040995717,0.025532792924344537,0.0017245770365931093
1695804847808773600,12.211773681640626,-0.2849772175759077,-0.03220204155519604,0.0996927107703872
1695804847818773500,12.2217734375,0.24771336258649826,0.01603796547874808,0.326905886038579
1695804847828772600,12.231772705078125,0.7615484356313943,0.05966551028117537,0.5612409308096393
1695804847838772500,12.2417724609375,1.2050433135151863,0.09557780453115701,0.7854005819924176
1695804847848771600,12.251771484375,1.3505886795252562,0.0715595078229904,0.886659573965147
1695804847858770700,12.261770751953126,1.0428677152216435,0.04968742936328053,0.911820976293832
1695804847868770600,12.2717705078125,0.5088526084572077,0.17815350414812564,0.961379956971854
1695804847878769700,12.281769775390625,0.009755085816979408,0.28440570129826664,0.9116381670728325
1695804847888769500,12.29176953125,-0.3056459115952253,0.2946152528844774,0.8556693924177438
1695804847898768600,12.3017685546875,-0.5071843829840421,0.18737009917423128,0.8212406147237866
1695804847908768800,12.311768798828124,-0.6352613123208284,0.11764321360588073,0.7032253529351205
1695804847918767600,12.321767578125,-0.6290279708892107,0.1323693658336997,0.5283482766417786
1695804847928766700,12.3317666015625,-0.5037538240134716,0.16081103194206953,0.3469989721270278
1695804847938766600,12.3417666015625,-0.30523557722866534,0.1310010000899434,0.2486241024895571
1695804847948765400,12.351765380859375,-0.10187982728481292,0.06502703731432556,0.19249376233089713
1695804847958765600,12.361765625,0.03942717050313949,0.02464066639021039,0.10268663188936188
1695804847968764400,12.371764404296876,0.10277940647304057,-0.04781535188108682,0.0606368714974029
1695804847978763500,12.381763427734375,0.1675286497592926,-0.1109467847071588,0.1544062794663012
1695804847988763600,12.391763671875,0.20745500195622443,-0.14879501545578241,0.14660082074659875
1695804847998762500,12.401762451171875,0.21688217099308965,-0.20896146099641918,-0.029171615217579525
1695804848008762600,12.4117626953125,0.23706045114696025,-0.24962314173057673,-0.23454939990779383
1695804848018761700,12.42176171875,0.2963490909397602,-0.2245380925737321,-0.20602854934968054
1695804848028761600,12.43176171875,0.34192250911295413,-0.21486615499556064,-0.19060108045209198
1695804848038760700,12.4417607421875,0.18342939872443675,-0.23417232849001884,-0.35125717756077646
1695804848048759800,12.451759765625,-0.04109188884496689,-0.2475705931149423,-0.34039581100232896
1695804848058759700,12.461759765625,-0.218144153752923,-0.19068726089820265,-0.22286749248038976
