time,seconds_elapsed,z,y,x
1695804835619486700,0.02248681640625,-9.693588268965483,-1.048682027523592,-1.0511864115599543
1695804835629486800,0.03248681640625,-9.692166711729765,-1.0830519146371633,-1.029217156336084
1695804835639486000,0.04248583984375,-9.690054249620436,-1.1223442067142575,-1.0067667665317654
1695804835649484800,0.05248486328125,-9.68786521514356,-1.1627332810521125,-0.9816858090281486
1695804835659485000,0.06248486328125,-9.686068979376554,-1.1986942367494107,-0.9558186695829033
1695804835669483800,0.07248388671875,-9.68499345909953,-1.2269346811972557,-0.9305458427689969
1695804835679484000,0.08248388671875,-9.685009825712442,-1.2461957003757358,-0.9044172028433531
1695804835689483000,0.09248291015625,-9.686163087400793,-1.2563428542502224,-0.8776286377042531
1695804835699481900,0.10248193359375,-9.688106038162111,-1.2597314737752079,-0.8509178139764815
1695804835709482000,0.11248193359375,-9.690247141844033,-1.2592711627870798,-0.8268814701549708
1695804835719480800,0.122480712890625,-9.692093646493554,-1.2565944909237325,-0.8091209917325526
1695804835729481000,0.13248095703125,-9.693587684443592,-1.2523701512269676,-0.7976916160278021
1695804835739479800,0.142479736328125,-9.694970078712702,-1.2472595302149652,-0.7888458270754665
1695804835749479700,0.152479736328125,-9.696265963742137,-1.2431405505888162,-0.7793663433294743
1695804835759478800,0.162478759765625,-9.697267834261059,-1.2417249847024678,-0.7690911791611462
1695804835769478000,0.172477783203125,-9.697633160442113,-1.245134647015482,-0.75890120905824
1695804835779477800,0.182477783203125,-9.697049807596207,-1.2540101735189557,-0.7517066213790327
1695804835789476900,0.192476806640625,-9.695501993632316,-1.2666082276768982,-0.7505549671258777
1695804835799476700,0.202476806640625,-9.693250415313244,-1.2805109346926211,-0.7560217080991715
1695804835809475800,0.212475830078125,-9.69073697118759,-1.2933615023069083,-0.7662998679421842
1695804835819475000,0.222474853515625,-9.688391869366168,-1.3031925759695469,-0.7791869681745767
1695804835829474800,0.232474853515625,-9.686422030597925,-1.3093575283400714,-0.7932214848764241
1695804835839474000,0.242473876953125,-9.685252402296662,-1.3106233104921876,-0.8053164848830551
1695804835849474000,0.25247412109375,-9.68508698260188,-1.3086324289359152,-0.8105286665733903
1695804835859472600,0.26247265625,-9.685815296876429,-1.3058159102104603,-0.8063562762595713
1695804835869471700,0.2724716796875,-9.687315180045365,-1.3017819785192608,-0.7947809162128716
1695804835879471900,0.282471923828125,-9.689221890449524,-1.2961910266444086,-0.7805476620685309
1695804835889470700,0.292470703125,-9.691021633347868,-1.290425594985485,-0.7676520862687378
1695804835899470800,0.302470947265625,-9.692524439126252,-1.2837886411890387,-0.7597636711064726
1695804835909470000,0.312469970703125,-9.69387410016954,-1.2756954972349106,-0.7561648428969084
1695804835919468800,0.32246875,-9.695351771506667,-1.2658370971739292,-0.7537862041320651
1695804835929469000,0.332468994140625,-9.696897831904888,-1.2542653173238039,-0.7532438408836722
1695804835939468000,0.342468017578125,-9.6981042850852,-1.2431862894266843,-0.7560715385902672
1695804835949468000,0.352468017578125,-9.698698743847013,-1.2341764690190553,-0.7631717259842902
1695804835959467000,0.362467041015625,-9.698806295874714,-1.2279555486775935,-0.7717904281824827
1695804835969467000,0.372466796875,-9.69857248711884,-1.2267099325306712,-0.7767003389906137
1695804835979466000,0.382466064453125,-9.69825450721085,-1.2312111894726752,-0.7735400483287871
1695804835989464800,0.39246484375,-9.698025959151982,-1.2378924208022652,-0.7657008060704916
1695804835999464700,0.402464599609375,-9.697873983460664,-1.2437610205747187,-0.7580798096727579
1695804836009463800,0.4124638671875,-9.697890934595465,-1.246898295687139,-0.7526905178498476
1695804836019463700,0.422463623046875,-9.698138771876692,-1.2466739854119717,-0.7498597514033317
1695804836029462800,0.432462890625,-9.698438631606102,-1.2428197942018508,-0.7523748029641807
1695804836039462000,0.4424619140625,-9.698529232499002,-1.2377135571040212,-0.7595938674975186
1695804836049461800,0.452461669921875,-9.698260352429747,-1.2339248323455452,-0.7691285885620862
1695804836059460600,0.462460693359375,-9.697684013846516,-1.2317597632661461,-0.7797918021999299
1695804836069460700,0.472460693359375,-9.69709890743494,-1.2301968978635967,-0.7894760147377848
1695804836079459600,0.48245947265625,-9.696696171852945,-1.2281506328582763,-0.7975705469314008
1695804836089459700,0.492459716796875,-9.696355980113148,-1.2273008841611444,-0.802991987458244
1695804836099458800,0.502458740234375,-9.696066057255864,-1.2285621362686157,-0.8045665432985871
1695804836109457700,0.512457763671875,-9.695713006034493,-1.230164456898719,-0.8063681858930737
1695804836119457800,0.522457763671875,-9.695200964859128,-1.230483313589543,-0.8120162747826427
1695804836129456600,0.53245654296875,-9.694632225060463,-1.2280258374348283,-0.8224637267779559
1695804836139456800,0.542456787109375,-9.694046534126997,-1.2229893045723437,-0.8367455693043768
1695804836149456000,0.552455810546875,-9.693736737525462,-1.2151751967553048,-0.8515865800835192
1695804836159454700,0.562454833984375,-9.693981067675352,-1.2045187781844287,-0.8638556945480406
1695804836169454800,0.572454833984375,-9.694885907560586,-1.1908199231777339,-0.8726500455740839
1695804836179454000,0.582453857421875,-9.696603817394376,-1.170637989762053,-0.8808299179635941
1695804836189453800,0.592453857421875,-9.699147072136402,-1.1453353523317724,-0.8860798013158142
1695804836199452700,0.60245263671875,-9.70256184901595,-1.119594688810408,-0.8815814669832587
1695804836209451800,0.61245166015625,-9.706650579634308,-1.0924894589375704,-0.8705091610878706
1695804836219451600,0.62245166015625,-9.710535312113166,-1.0674787901911884,-0.8581270877681672
1695804836229450800,0.63245068359375,-9.712950556561351,-1.0523911111745983,-0.8493783294495195
1695804836239450600,0.64245068359375,-9.712948218473791,-1.0521125134289264,-0.8497518389370292
1695804836249449700,0.65244970703125,-9.710441204088927,-1.066900551911816,-0.8599062262699008
1695804836259449600,0.66244970703125,-9.706129186108708,-1.0919629508454352,-0.8769590678796172
1695804836269448700,0.67244873046875,-9.701178285703062,-1.1205812886949629,-0.8954480067070573
1695804836279447800,0.68244775390625,-9.696712538465857,-1.1465389559678734,-0.9108225398410111
1695804836289447700,0.69244775390625,-9.693234048700331,-1.1664414879202842,-0.9225008488055318
1695804836299446800,0.70244677734375,-9.690808867380023,-1.1800113097198306,-0.9306896351538598
1695804836309447000,0.712447021484375,-9.689446346855163,-1.1871760137174279,-0.9357482337176799
1695804836319445800,0.72244580078125,-9.689137719297408,-1.1870015339333564,-0.9391622799448669
1695804836329444600,0.732444580078125,-9.689914548888803,-1.1788465767893939,-0.9414129814811051
1695804836339444700,0.74244482421875,-9.691786187979579,-1.162820740139857,-0.9420790441744029
1695804836349443600,0.752443603515625,-9.694633394104242,-1.139876064012572,-0.9408242948729544
1695804836359443700,0.762443603515625,-9.698059276899695,-1.1127896119054406,-0.9379406291954219
1695804836369442800,0.77244287109375,-9.701486913260817,-1.084209048783034,-0.9359601229026913
1695804836379442700,0.782442626953125,-9.704503046211599,-1.0567023985024542,-0.9361560108009725
1695804836389441800,0.79244189453125,-9.70692822753191,-1.033267235444486,-0.9371722751714289
1695804836399440600,0.802440673828125,-9.708712188339232,-1.0162694119576363,-0.9372772699158638
1695804836409440800,0.812440673828125,-9.709766665828228,-1.0061467349372804,-0.9372720092188567
1695804836419439900,0.82243994140625,-9.71013549914062,-1.000559509389475,-0.9394342287540435
1695804836429439700,0.832439697265625,-9.710111533743143,-0.9970391532436013,-0.9434141652356832
1695804836439438800,0.84243896484375,-9.710123808702827,-0.9937770827077329,-0.9467253356102854
1695804836449438000,0.85243798828125,-9.710514853847027,-0.9887572817843406,-0.9479689789958298
1695804836459437800,0.862437744140625,-9.711465286439656,-0.9804716109327971,-0.9468369792912155
1695804836469436700,0.872436767578125,-9.7130271289289,-0.9687851186618208,-0.942835634695366
1695804836479436500,0.8824365234375,-9.7150390532732,-0.9549151448719203,-0.9362336791470647
1695804836489435600,0.892435546875,-9.717402275273203,-0.9394426312562077,-0.9273216930907219
1695804836499434800,0.902434814453125,-9.719933839577436,-0.9239099849510938,-0.9163288091070949
1695804836509434600,0.9124345703125,-9.72216495963037,-0.9116106945440172,-0.9049073975130915
1695804836519433700,0.922433837890625,-9.723922032430767,-0.9056720252100378,-0.8918955018572509
1695804836529433600,0.93243359375,-9.725064772725105,-0.9089791769966482,-0.8759327935718
1695804836539432700,0.9424326171875,-9.725107442823052,-0.9261194776941091,-0.8573041540127248
1695804836549432800,0.952432861328125,-9.72359937634766,-0.9598061317838728,-0.8371228781841695
1695804836559431700,0.962431640625,-9.720340666812659,-1.0078823996234685,-0.8182533425413072
1695804836569430800,0.9724306640625,-9.715586750283837,-1.0664322037477045,-0.800301579330489
1695804836579431000,0.982430908203125,-9.709877724987267,-1.1308053071979434,-0.7809859804205596
1695804836589429800,0.9924296875,-9.703725632098317,-1.1958547024745494,-0.7602768813256174
1695804836599430000,1.002429931640625,-9.697447282481193,-1.259174862805754,-0.7378234958466142
1695804836609428700,1.0124287109375,-9.691305126464366,-1.3190233284384012,-0.7135604305971414
1695804836619427600,1.022427490234375,-9.685387426853179,-1.3741349748075007,-0.6894961758553981
1695804836629427700,1.032427734375,-9.67958780066371,-1.424555979142338,-0.6682861415009945
1695804836639426800,1.0424267578125,-9.673876437279581,-1.4705375397250056,-0.651168783287704
1695804836649426700,1.0524267578125,-9.668346275681257,-1.512156375053525,-0.6378459950517863
1695804836659425800,1.06242578125,-9.66311655833423,-1.54957264412567,-0.627206527615711
1695804836669425000,1.0724248046875,-9.65806512016356,-1.5844916895546017,-0.6176935799915343
1695804836679424800,1.0824248046875,-9.65280208506882,-1.6196547728724777,-0.6086996512727811
1695804836689424000,1.092423828125,-9.646895491373538,-1.6573621338456868,-0.600782521472685
1695804836699423700,1.102423828125,-9.639992287856339,-1.6992121475815771,-0.5946477085120976
1695804836709422800,1.1124228515625,-9.631962126135825,-1.7456246469274161,-0.5903252787357196
1695804836719422700,1.122422607421875,-9.622471244212985,-1.7976725218117235,-0.5889011276841163
1695804836729421800,1.132421875,-9.611110476765036,-1.8559608985207974,-0.5935944365995004
1695804836739420700,1.142420654296875,-9.597261984154581,-1.9218628189735114,-0.6077727091535926
1695804836749420500,1.152420654296875,-9.579999299186468,-1.9977900204867123,-0.6346895768474787
1695804836759419600,1.162419677734375,-9.558348608392476,-2.0865990615352987,-0.6741339176811277
1695804836769419800,1.172419677734375,-9.53172772797048,-2.188956150943041,-0.7245875821765512
1695804836779418600,1.182418701171875,-9.50067617162466,-2.3016147080041467,-0.7810933132525533
1695804836789417700,1.192417724609375,-9.466687977305055,-2.418703356467187,-0.8379016805369407
1695804836799417900,1.20241796875,-9.431832352501154,-2.533295073547959,-0.8906945285696536
1695804836809416700,1.212416748046875,-9.39884661322236,-2.6382982935503123,-0.9335118529677391
1695804836819416800,1.222416748046875,-9.370706560409069,-2.727440219815075,-0.9598527474045753
1695804836829415700,1.232415771484375,-9.349746189966798,-2.7964973894283176,-0.9655198332555591
1695804836839415800,1.242415771484375,-9.337063234004377,-2.843549940243363,-0.9507154281597584
1695804836849415000,1.252414794921875,-9.332519745355844,-2.8685633854687214,-0.9196779734045266
1695804836859413500,1.26241357421875,-9.334837374648451,-2.873651648518443,-0.8793847606565802
1695804836869414000,1.272413818359375,-9.341565806120634,-2.8644930672898887,-0.8367845130752771
1695804836879412700,1.282412841796875,-9.349716963872313,-2.849073964361846,-0.7974697899706661
1695804836889412600,1.29241259765625,-9.356972634088992,-2.8338404471337793,-0.7660252887845039
1695804836899411700,1.30241162109375,-9.361656992512941,-2.8240827309682963,-0.7445283272475004
1695804836909410800,1.312410888671875,-9.362817852985858,-2.8231328828975557,-0.733450030002743
1695804836919410700,1.32241064453125,-9.360260569718479,-2.8323917096301914,-0.7303865507788956
1695804836929409800,1.332409912109375,-9.354342285585403,-2.851355353297293,-0.7324165222365409
1695804836939409700,1.34240966796875,-9.345900620454549,-2.8778113985463976,-0.7367002639703453
1695804836949408800,1.35240869140625,-9.336694400691986,-2.907506864108145,-0.736837407418713
1695804836959407900,1.362407958984375,-9.329314811834692,-2.934219514466822,-0.7243077423218637
1695804836969407700,1.37240771484375,-9.327088367956875,-2.9491084560409186,-0.691786624880135
1695804836979406800,1.38240673828125,-9.331946913903952,-2.9463018741875886,-0.6359698259163648
1695804836989406700,1.39240673828125,-9.343087901121377,-2.925983308780193,-0.5618858776496723
1695804836999405600,1.402405517578125,-9.358122388646006,-2.8927465173497793,-0.47743652964793143
1695804837009406000,1.412406005859375,-9.373793420508504,-2.8547251219913363,-0.39105241419132797
1695804837019404500,1.422404541015625,-9.386794356378912,-2.8214415688097474,-0.31295181416179985
1695804837029403600,1.432403564453125,-9.39504079119861,-2.80011031922847,-0.25095658229142426
1695804837039403800,1.44240380859375,-9.3976711397022,-2.794464130035043,-0.21243845292460173
1695804837049402600,1.452402587890625,-9.394479065662622,-2.8062524752452966,-0.19773396453931927
1695804837059402800,1.46240283203125,-9.386860991874336,-2.8315064512282606,-0.19949302836740387
1695804837069402000,1.472402099609375,-9.377294122105836,-2.862584311059117,-0.20578208204163237
1695804837079401000,1.48240087890625,-9.367866368547082,-2.8931436999738214,-0.20779283734215423
1695804837089401000,1.492401123046875,-9.359969477817415,-2.919034220294654,-0.20147885015606878
1695804837099400000,1.50239990234375,-9.354444576916098,-2.9377321987628937,-0.18570273221759123
1695804837109400000,1.512400146484375,-9.351430197530984,-2.9487209180280565,-0.16182064737603066
1695804837119399200,1.522399169921875,-9.349898750180005,-2.954988161729276,-0.13350814233897254
1695804837129398000,1.53239794921875,-9.3483632111758,-2.9610464388549325,-0.10341914741499349
1695804837139398100,1.542398193359375,-9.345682009267806,-2.9704037575259803,-0.07286519729380961
1695804837149397200,1.552397216796875,-9.34123847386241,-2.984981148932874,-0.039145974375004874
1695804837159397000,1.562397216796875,-9.334422948628664,-3.0064819098621607,-0.0004566086712884498
1695804837169396200,1.572396240234375,-9.324889396607876,-3.035692514516413,0.03736025086885784
1695804837179396000,1.58239599609375,-9.313601109874249,-3.0695991680324077,0.06915288050610106
1695804837189395200,1.592395263671875,-9.302391733595728,-3.102733960393071,0.09451942718517967
1695804837199394300,1.602394287109375,-9.293527459138632,-3.12843538788259,0.11669982267539017
1695804837209394200,1.612394287109375,-9.288874080374836,-3.1413369550317523,0.13858174667567946
1695804837219393000,1.62239306640625,-9.288713336855173,-3.1407293445274234,0.1612600360848941
1695804837229393000,1.632392822265625,-9.292297040560841,-3.128914111310243,0.18302054392891004
1695804837239392000,1.64239208984375,-9.298277868536115,-3.110054512539506,0.19995142139308153
1695804837249391000,1.65239111328125,-9.305173473268747,-3.0884371394932266,0.21374706957144662
1695804837259391000,1.662390869140625,-9.312188320466875,-3.0659011902973052,0.2319187408769503
1695804837269390000,1.67239013671875,-9.31894948516488,-3.0428871021956203,0.26154727868232874
1695804837279390200,1.68239013671875,-9.325014484292268,-3.0201638137340545,0.305123860482499
1695804837289389000,1.69238916015625,-9.329995779836178,-2.998359101422131,0.3624989948041737
1695804837299388200,1.70238818359375,-9.333580652585626,-2.9780700543701646,0.43099542526211587
1695804837309388300,1.71238818359375,-9.335039034700394,-2.9612986600503324,0.5080788110731169
1695804837319387100,1.72238720703125,-9.334213105270265,-2.948826424229145,0.5892980911124497
1695804837329387300,1.73238720703125,-9.331554115194082,-2.9397298023208975,0.6711674690909684
1695804837339386000,1.74238623046875,-9.326817734321951,-2.935145981661975,0.7521759924564511
1695804837349386200,1.75238623046875,-9.320001624566316,-2.935876049502194,0.8298143818017095
1695804837359385000,1.762385009765625,-9.311557036826015,-2.942109683194756,0.899598112123832
1695804837369384000,1.772384033203125,-9.301427856999636,-2.95539089731127,0.9589007073767483
1695804837379384000,1.782384033203125,-9.289141206878423,-2.9787516068935393,1.0046270510893314
1695804837389383200,1.792383056640625,-9.274275646179914,-3.0147695534750816,1.0340983525063843
1695804837399383000,1.802383056640625,-9.257417450359464,-3.062242960050702,1.0455973593812435
1695804837409382100,1.812382080078125,-9.239704099014402,-3.116861562205851,1.0408797562748193
1695804837419381200,1.82238134765625,-9.222662947842478,-3.172776049390435,1.022920978801325
1695804837429381000,1.832381103515625,-9.207839472720027,-3.2240453411176797,0.9957968250323086
1695804837439380200,1.842380126953125,-9.196690302196144,-3.264659383317828,0.9660578125897794
1695804837449380000,1.852380126953125,-9.190138980856537,-3.290120572310686,0.9417183211032301
1695804837459379200,1.862379150390625,-9.188485368430614,-3.2982486414477226,0.9293407778281718
1695804837469379000,1.872379150390625,-9.191319130551815,-3.289979118013382,0.9306297216601669
1695804837479378200,1.882378173828125,-9.197620276522636,-3.2692204076230524,0.941471872061491
1695804837489377000,1.892376953125,-9.20548384950459,-3.242797972382605,0.9558838437736034
1695804837499377000,1.902376953125,-9.213117120862007,-3.217767868283391,0.9668667908851056
1695804837509376000,1.9123759765625,-9.21887115434408,-3.2004455620825287,0.9695114601749927
1695804837519376100,1.922376220703125,-9.221626006010174,-3.1943519213825464,0.9633874243367463
1695804837529375000,1.932375,-9.22124255965054,-3.199803172525763,0.9488581829205155
1695804837539374000,1.9423740234375,-9.217401666313409,-3.2166958551377056,0.9288464915052056
1695804837549374200,1.952374267578125,-9.2100343524158,-3.2439135324090715,0.9070147450558841
1695804837559373000,1.962373046875,-9.200296802255512,-3.2769457411780953,0.886876139325276
1695804837569373200,1.972373291015625,-9.189737998840211,-3.309902546623349,0.8738666548222302
1695804837579372300,1.982372314453125,-9.180282188230752,-3.335998234127462,0.8740251333195715
1695804837589372200,1.9923720703125,-9.172480574569105,-3.3528178515031932,0.8914031882956623
1695804837599371300,2.002371337890625,-9.166777979013323,-3.359390215630829,0.9246955823708325
1695804837609370000,2.0123701171875,-9.163871151655911,-3.3552383566483854,0.9675878717012703
1695804837619370200,2.022370361328125,-9.164012021431326,-3.3415190433755515,1.012680885946378
1695804837629369000,2.032369140625,-9.166480457371472,-3.3223931948840617,1.0524865343730896
1695804837639369000,2.042368896484375,-9.170498460841179,-3.3025162357643243,1.0796916444238274
1695804837649368000,2.0523681640625,-9.17549203134477,-3.2853657789990303,1.0895439070049673
1695804837659367200,2.0623671875,-9.181043820253015,-3.2723721496522424,1.081849553110078
1695804837669367000,2.072366943359375,-9.187494019305705,-3.2618650764241814,1.0585735992018133
1695804837679366100,2.0823662109375,-9.194176858070492,-3.253635592739284,1.0253536127757281
1695804837689366000,2.092365966796875,-9.200558083540201,-3.246982272329926,0.9885441504903137
1695804837699365000,2.102365234375,-9.20671368356049,-3.239813988135755,0.9541559240024536
1695804837709364200,2.1123642578125,-9.212917214375734,-3.2305417173996567,0.9252813463695346
1695804837719364000,2.122364013671875,-9.219420604920387,-3.2190178683444857,0.9003310295082628
1695804837729363200,2.13236328125,-9.226161895874142,-3.206623666195571,0.8751499726310372
1695804837739363000,2.142363037109375,-9.233037626862526,-3.1944466139286756,0.8467105715449899
1695804837749362200,2.152362060546875,-9.24020795688331,-3.182265177747607,0.8137136532850563
1695804837759362300,2.1623623046875,-9.247972745665907,-3.16868264259696,0.7777091507069767
1695804837769361000,2.17236083984375,-9.256495659339427,-3.1519621016815305,0.7435100901156664
1695804837779360000,2.182360107421875,-9.265800078779458,-3.1310452781200406,0.7154627570871264
1695804837789360000,2.192360107421875,-9.275765007954835,-3.1061627657979725,0.6944916460551321
1695804837799359000,2.20235888671875,-9.28586262359917,-3.0792174757272,0.679381097619608
1695804837809359000,2.212359130859375,-9.295070596927404,-3.0538921880736947,0.6676732702996582
1695804837819358200,2.222358154296875,-9.30250045466721,-3.033808600465953,0.6556495819635689
1695804837829357000,2.232357177734375,-9.308017172262073,-3.0204207111045718,0.6389501569014042
1695804837839357200,2.242357177734375,-9.312272491618991,-3.012298194925487,0.6148408939741552
1695804837849356300,2.252356201171875,-9.31596491639614,-3.0073566468700763,0.5822288833785801
1695804837859356200,2.262356201171875,-9.320146001473068,-3.001846359016001,0.5423885654972865
1695804837869355300,2.272355224609375,-9.325434171009062,-2.992822217822075,0.49967287484277034
1695804837879354000,2.28235400390625,-9.33168797070682,-2.980126694639027,0.4569837434016168
1695804837889354200,2.292354248046875,-9.338520447075366,-2.9645097310513258,0.41726058562658724
1695804837899353000,2.30235302734375,-9.345427157723902,-2.9473636582002043,0.3826546247348189
1695804837909353000,2.31235302734375,-9.352560662865638,-2.9281112607195974,0.3551856395835057
1695804837919352000,2.32235205078125,-9.36074572288692,-2.904072213484347,0.33643808635249733
1695804837929352000,2.33235205078125,-9.37044235651493,-2.8738199908226725,0.32611228797547515
1695804837939351000,2.34235107421875,-9.381718368288874,-2.8372683757558463,0.3219526110127568
1695804837949350100,2.35235009765625,-9.394179205933213,-2.796102544891834,0.3187406266963109
1695804837959350000,2.36235009765625,-9.406984911492467,-2.753254752290249,0.31401242913063615
1695804837969349000,2.37234912109375,-9.41897111736238,-2.712654738615453,0.3080052246050909
1695804837979349200,2.382349365234375,-9.430172894856334,-2.675198283663392,0.2924606686664745
1695804837989348000,2.39234814453125,-9.441544183698296,-2.6379154317125675,0.26272739184498783
1695804837999347200,2.40234716796875,-9.453763613802193,-2.5976219997689127,0.22158651275914162
1695804838009347300,2.412347412109375,-9.467188912564515,-2.5517393695160746,0.1770332679465413
1695804838019346000,2.422345947265625,-9.48208194579184,-2.4983704751610754,0.1365842253160663
1695804838029346300,2.43234619140625,-9.497851177331805,-2.439364159440994,0.10351179413450881
1695804838039345200,2.44234521484375,-9.512733689165115,-2.3816708260156214,0.07698626384576782
1695804838049344000,2.452343994140625,-9.524853166025876,-2.333369736444205,0.05423656230131164
1695804838059344100,2.46234423828125,-9.533262097930908,-2.2991838275954124,0.032467213563714174
1695804838069343000,2.472343017578125,-9.538197216245532,-2.2788271221347154,0.01123468539135647
1695804838079342800,2.4823427734375,-9.540839839708804,-2.2677559852831064,-0.006684613450875621
1695804838089341700,2.492341796875,-9.542917815026641,-2.2589285357050595,-0.018517506193154256
1695804838099341600,2.502341552734375,-9.545687864261865,-2.247156703238189,-0.022597200696752404
1695804838109340700,2.512340576171875,-9.549988191804289,-2.228846993435174,-0.018832338587765115
1695804838119339800,2.52233984375,-9.555810614347457,-2.2038205425977706,-0.006466699808809789
1695804838129339600,2.532339599609375,-9.562349660727381,-2.175244144193828,0.01285855798285338
1695804838139338800,2.5423388671875,-9.568547930845618,-2.147547451233864,0.03624995153939817
1695804838149338600,2.552338623046875,-9.573550853699444,-2.1246068667598066,0.0595920294864336
1695804838159337700,2.562337646484375,-9.576538345077633,-2.110519158565998,0.0774961678629741
1695804838169336800,2.5723369140625,-9.57680547158122,-2.1089555625110865,0.0865460097537376
1695804838179336700,2.582336669921875,-9.574012625992298,-2.121700185532868,0.08397596746948548
1695804838189335800,2.592335693359375,-9.568453822821379,-2.1471571367420257,0.06920583453604486
1695804838199336000,2.6023359375,-9.56097018906772,-2.1808557004652918,0.0458964487156365
1695804838209334800,2.612334716796875,-9.552941196390986,-2.216164768125117,0.017846165678184478
1695804838219333600,2.622333740234375,-9.54562298233211,-2.247527728507668,-0.009246202429791446
1695804838229333800,2.632333740234375,-9.539799975267051,-2.271934440011531,-0.03030270845660707
1695804838239332600,2.64233251953125,-9.53557154391706,-2.2893960085526106,-0.04392560530039481
1695804838249332700,2.652332763671875,-9.532661793950199,-2.3013290229305623,-0.051305723880650474
1695804838259331600,2.66233154296875,-9.530510753396152,-2.3101205244123935,-0.05564494496162515
1695804838269331700,2.672331787109375,-9.528462004172802,-2.3184454312957823,-0.06005055037627462
1695804838279330800,2.682330810546875,-9.525955574309826,-2.328550353463739,-0.06639348509563132
1695804838289329700,2.69232958984375,-9.522672899377346,-2.34163589887768,-0.07633591474483255
1695804838299329800,2.702329833984375,-9.518131748816371,-2.3594961113475263,-0.09128169650612399
1695804838309329000,2.712328857421875,-9.512018234372139,-2.383154488702118,-0.11164919735547155
1695804838319328800,2.722328857421875,-9.50420142314136,-2.412698563094437,-0.1393579369462561
1695804838329327900,2.732327880859375,-9.494533431085944,-2.4480378797620532,-0.17699744771448894
1695804838339327000,2.742326904296875,-9.482910797831416,-2.4884973159223795,-0.2284004488239996
1695804838349326800,2.752326904296875,-9.46895007701814,-2.5347441033124922,-0.29059123979909346
1695804838359325700,2.76232568359375,-9.453011918652058,-2.585630825462937,-0.3542103282779455
1695804838369325600,2.77232568359375,-9.43659445233643,-2.6363877837538716,-0.41294820232018825
1695804838379324700,2.78232470703125,-9.421994849097729,-2.680610079579055,-0.45905605616364625
1695804838389324500,2.792324462890625,-9.411309204432367,-2.7132103266716,-0.4859359163153916
1695804838399323600,2.80232373046875,-9.40544995701015,-2.7323692006498574,-0.49198527948223053
1695804838409322800,2.81232275390625,-9.404286758449674,-2.7388816512838003,-0.47781380199510604
1695804838419322600,2.822322509765625,-9.40623321634233,-2.7367048917666077,-0.4512282120821997
1695804838429321700,2.83232177734375,-9.409155825790762,-2.731286666110158,-0.4221841596338898
1695804838439321900,2.84232177734375,-9.411081825417279,-2.7281913304433223,-0.3986109398121014
1695804838449320700,2.85232080078125,-9.41085853805542,-2.731163039730489,-0.38324119245111943
1695804838459319800,2.86231982421875,-9.408122391089796,-2.741778541769087,-0.3745176781715825
1695804838469320000,2.87231982421875,-9.4034181589216,-2.7587454586610196,-0.36801231486555186
1695804838479318800,2.88231884765625,-9.397495783135295,-2.7799168415054676,-0.359889068034105
1695804838489319000,2.89231884765625,-9.391633613103627,-2.801244291694462,-0.3473291904620826
1695804838499317800,2.90231787109375,-9.387160267081857,-2.8183199296578763,-0.32966099343299865
1695804838509316600,2.912316650390625,-9.385259401896596,-2.8273011084929105,-0.30604093879479916
1695804838519316700,2.922316650390625,-9.386284653291106,-2.826750196611881,-0.2784454229206778
1695804838529315600,2.932315673828125,-9.389669619554281,-2.8181214844763276,-0.250361429409869
1695804838539315700,2.942315673828125,-9.394262208041548,-2.8048817714139815,-0.2255220438434742
1695804838549314800,2.952314697265625,-9.398451476424931,-2.7923668654948473,-0.2053768805079162
1695804838559314700,2.962314697265625,-9.400930433759093,-2.785203841997683,-0.1885117069574073
1695804838569313800,2.972313720703125,-9.401079486840963,-2.7856632762029765,-0.1737089275631122
1695804838579313000,2.98231298828125,-9.398665411436557,-2.7945184905707836,-0.1616617852861993
1695804838589312800,2.992312744140625,-9.393600529262423,-2.8120135229900476,-0.15241414666785857
1695804838599312000,3.002311767578125,-9.385913481891155,-2.8379297622740265,-0.14548028315091505
1695804838609311700,3.012311767578125,-9.376630689761042,-2.868718576030433,-0.14011653676121494
1695804838619310800,3.022310791015625,-9.366957437008619,-2.9003669292256236,-0.13549854897120966
1695804838629309700,3.032309814453125,-9.358084394723177,-2.929097933669388,-0.1304975714792963
1695804838639309600,3.0423095703125,-9.351431366574763,-2.95063522721678,-0.12194362334669567
1695804838649308700,3.05230859375,-9.34811829650402,-2.9615821531668303,-0.10999734762837178
1695804838659308500,3.06230859375,-9.348654887598752,-2.960370731550455,-0.09612466129157692
1695804838669307600,3.0723076171875,-9.352494611892103,-2.9486501908794045,-0.08176638339492492
1695804838679307800,3.082307861328125,-9.358678853484987,-2.9292823503255843,-0.06945861742044798
1695804838689306600,3.092306640625,-9.36608065417409,-2.9057068289488552,-0.06157288283903617
1695804838699305700,3.1023056640625,-9.373769455111026,-2.880878384901583,-0.0580962288375711
1695804838709305900,3.112305908203125,-9.380917573300003,-2.8575334574103355,-0.057174346485990096
1695804838719304700,3.1223046875,-9.386969712945819,-2.8376094442784785,-0.05622048439383506
1695804838729304800,3.132304931640625,-9.39101285085678,-2.824314786158502,-0.050134995034267195
1695804838739304000,3.142303955078125,-9.3920036154598,-2.821134694817662,-0.04306534434240311
1695804838749302500,3.152302490234375,-9.390313178154825,-2.8267309073895213,-0.04471987465035636
1695804838759303000,3.162302978515625,-9.388003732168674,-2.8341870686143635,-0.05615170717367436
1695804838769301800,3.1723017578125,-9.387239177536964,-2.8363468769967555,-0.07251373980790377
1695804838779301600,3.182301513671875,-9.389920963966846,-2.8270445033833385,-0.08710602738982998
1695804838789300700,3.19230078125,-9.397159683048725,-2.8025904456064104,-0.09622496159458532
1695804838799299800,3.2022998046875,-9.408791668653487,-2.763271119391918,-0.09673777908808551
1695804838809299700,3.2122998046875,-9.4234076385051,-2.7133433054015037,-0.086853733129194
1695804838819298800,3.222298828125,-9.438903313800692,-2.659487504312396,-0.06790584872022737
1695804838829298700,3.232298583984375,-9.453152203905582,-2.608919638852775,-0.04282512867862824
1695804838839297800,3.2422978515625,-9.46442178593874,-2.568039931453764,-0.01669592706398107
1695804838849297700,3.252297607421875,-9.471621342054009,-2.5414047302454708,0.0059188892045640385
1695804838859296800,3.262296875,-9.474566747856139,-2.5303043672993777,0.02290872574778041
1695804838869295900,3.2722958984375,-9.474067566162347,-2.532047119313478,0.034059053898998534
1695804838879295700,3.282295654296875,-9.471879116207361,-2.5401114755645393,0.04148513507940806
1695804838889294600,3.292294677734375,-9.469841472899914,-2.5475655909627672,0.04896020650069695
1695804838899295000,3.302294921875,-9.468899223613738,-2.5508389135450122,0.059615159200271585
1695804838909293600,3.31229345703125,-9.469048861217498,-2.5498764982536435,0.07504548220864962
1695804838919292700,3.322292724609375,-9.46973742800355,-2.546689977172017,0.09396658820854499
1695804838929292800,3.332292724609375,-9.470355852162838,-2.5437135917097327,0.11074506072313524
1695804838939291600,3.342291748046875,-9.470114444622396,-2.54425047506541,0.11875785118374041
1695804838949291800,3.352291748046875,-9.46816740220785,-2.5517200802937148,0.11365281966230831
1695804838959290600,3.36229052734375,-9.464181547442077,-2.567256964382529,0.09403187199709936
1695804838969290800,3.372290771484375,-9.458334574979544,-2.589669287198782,0.0624540861203568
1695804838979289900,3.382289794921875,-9.451221528103947,-2.61613643836379,0.02494626859052805
1695804838989288700,3.392288818359375,-9.444027232685684,-2.642071966870129,-0.01380737743206555
1695804838999288800,3.402288818359375,-9.438185520920158,-2.6624519070759414,-0.0488931463135872
1695804839009288000,3.412287841796875,-9.434389635768532,-2.6752567358523605,-0.07537421183951665
1695804839019287800,3.422287841796875,-9.432578786954283,-2.6811338111922143,-0.09144475071388296
1695804839029286700,3.43228662109375,-9.432317505669593,-2.6818594951182604,-0.0969410739746876
1695804839039285800,3.44228564453125,-9.43269744489789,-2.6806878209903835,-0.09229249925017356
1695804839049285600,3.45228564453125,-9.432851758676767,-2.6805557190433142,-0.0794620245758444
1695804839059284700,3.46228466796875,-9.432351407939196,-2.682761120133102,-0.0626723730801139
1695804839069284900,3.472284912109375,-9.431244908002018,-2.6869845830470322,-0.04598867987662088
1695804839079284000,3.482283935546875,-9.429613507407904,-2.6929069588333365,-0.03206449396474054
1695804839089283000,3.492282958984375,-9.427907288011909,-2.6989646514371035,-0.023121678945294113
1695804839099283000,3.502282958984375,-9.426438969025016,-2.7041096131101248,-0.02070113041761797
1695804839109282000,3.512281982421875,-9.425400858148931,-2.707697700729966,-0.02403706305742962
1695804839119282000,3.522281982421875,-9.424644486823677,-2.7102669666960835,-0.03025943785374984
1695804839129281000,3.532281005859375,-9.423994498482346,-2.7124598005652425,-0.035715789863769894
1695804839139281200,3.54228125,-9.42340588493943,-2.7145006587430833,-0.03589673135466873
1695804839149280000,3.552280029296875,-9.423333988747,-2.7148350052639842,-0.028886562614946158
1695804839159279000,3.562279052734375,-9.42393137011826,-2.7128800718039274,-0.013578671826282515
1695804839169279000,3.572279052734375,-9.42506884971559,-2.7089465317472814,0.008097926872989046
1695804839179277800,3.58227783203125,-9.426797865465282,-2.702754983630776,0.031360062889277465
1695804839189278000,3.59227783203125,-9.429088022229076,-2.6944892595887184,0.049046989735006354
1695804839199276800,3.60227685546875,-9.431554704603553,-2.685712663415074,0.05574724542547483
1695804839209276000,3.61227587890625,-9.433402962818741,-2.6793893056124447,0.04648495722727384
1695804839219276000,3.622276123046875,-9.43383258640766,-2.6782030184373258,0.020388913530134594
1695804839229275000,3.63227490234375,-9.432591061913966,-2.682594823655486,-0.017209869077132314
1695804839239275000,3.64227490234375,-9.43010567483902,-2.6907535801917315,-0.05780755722245667
1695804839249274000,3.652274169921875,-9.426725969272852,-2.7015499917551873,-0.09409357558907941
1695804839259273000,3.66227294921875,-9.422374788326024,-2.715414558717608,-0.1255621517705731
1695804839269273000,3.672273193359375,-9.41660029657781,-2.733740781264007,-0.15710043218741193
1695804839279272200,3.682272216796875,-9.408530387368797,-2.759124813367426,-0.19278134710062295
1695804839289272000,3.69227197265625,-9.397946449512244,-2.7917373354196546,-0.23491386757232247
1695804839299271200,3.702271240234375,-9.385348833745718,-2.829425261040032,-0.28278368958700445
1695804839309271000,3.71227099609375,-9.371889632713794,-2.8682980125308033,-0.3330707653438672
1695804839319270000,3.722269775390625,-9.359367420271038,-2.902848224647343,-0.38222814295105634
1695804839329269000,3.73226904296875,-9.349959540456533,-2.9268387565657497,-0.4269142203630879
1695804839339268900,3.742268798828125,-9.34533889491856,-2.9359882777050137,-0.46367995310463006
1695804839349268000,3.75226806640625,-9.346059025886655,-2.9294606295019388,-0.4897204763554036
1695804839359267800,3.762267822265625,-9.351548270952701,-2.909618157173693,-0.5030400862535461
1695804839369267000,3.772266845703125,-9.360959657898544,-2.8792946228414773,-0.502478945239447
1695804839379266000,3.78226611328125,-9.372657694476842,-2.843219100853801,-0.4896654582325369
1695804839389266000,3.792265869140625,-9.383569549113512,-2.8110250964745878,-0.4659902758736163
1695804839399265000,3.80226513671875,-9.390657461547852,-2.792981198000908,-0.4303411991370842
1695804839409265200,3.81226513671875,-9.392292953795193,-2.79324803224355,-0.39113406459279354
1695804839419264000,3.822263916015625,-9.389243503096699,-2.8079855826482176,-0.3573612300569191
1695804839429262800,3.832262939453125,-9.384085097420215,-2.8273163060620425,-0.34002288603670894
1695804839439263200,3.84226318359375,-9.3803283752352,-2.8387802416235206,-0.34806948743537064
1695804839449261800,3.85226171875,-9.381488651186228,-2.8306662010118364,-0.38129535561297084
1695804839459262000,3.862261962890625,-9.388672425210475,-2.799801399409771,-0.4293349447039887
1695804839469261000,3.872260986328125,-9.400831065037845,-2.7501868891522285,-0.4808700112279504
1695804839479261000,3.882260986328125,-9.41605844478607,-2.6891411765590307,-0.5260657551951706
1695804839489260000,3.892260009765625,-9.4323227663666,-2.624902220882475,-0.5581769766617566
1695804839499259000,3.9022587890625,-9.447584632906317,-2.5663708291977643,-0.57207774744872
1695804839509259000,3.912259033203125,-9.45959012799859,-2.523288058796525,-0.5652907541897148
1695804839519258000,3.922258056640625,-9.466403315144778,-2.5030484038442373,-0.540681140524894
1695804839529258000,3.932258056640625,-9.466897236141563,-2.5085975624039767,-0.5051545211242512
1695804839539257000,3.942257080078125,-9.460333055320381,-2.5414494461700317,-0.46207967830114066
1695804839549257000,3.952257080078125,-9.446556458902359,-2.6001822056457398,-0.41474604552239175
1695804839559256000,3.962256103515625,-9.426396298927068,-2.6794600327610967,-0.3659655384035781
1695804839569256200,3.972256103515625,-9.401341352647542,-2.771773282538354,-0.3200672356575727
1695804839579255000,3.982255126953125,-9.373862394091486,-2.86724119695425,-0.2828713130715303
1695804839589254000,3.99225390625,-9.346488064953684,-2.9574902076780796,-0.25844284639358517
1695804839599254000,4.00225390625,-9.321875601744651,-3.0349232837095856,-0.24952766373315824
1695804839609252900,4.0122529296875,-9.302308731487393,-3.0937770392164587,-0.2568751952180639
1695804839619253000,4.0222529296875,-9.28925986482203,-3.131006115153432,-0.2771942720821127
1695804839629251800,4.032251953125,-9.282978592595457,-3.1473306424885985,-0.30167671570330856
1695804839639251000,4.0422509765625,-9.282930077278614,-3.145446143916249,-0.3221166790006682
1695804839649251000,4.0522509765625,-9.288320538145303,-3.1285239429488776,-0.3314006401745602
1695804839659250000,4.06225,-9.297377120304107,-3.1021593753755092,-0.3252266642473638
1695804839669250000,4.07225,-9.307393487405776,-3.0742262433111667,-0.30321700394786893
1695804839679249200,4.082249267578125,-9.315618294915556,-3.05246478561908,-0.2685135557646863
1695804839689249000,4.0922490234375,-9.32023601784408,-3.0414544390439984,-0.2305224642129615
1695804839699248000,4.102248046875,-9.320646352210641,-3.0425349277570843,-0.19727526098638773
1695804839709247000,4.1122470703125,-9.317174876707792,-3.0548508039727804,-0.1688893619195558
1695804839719247000,4.1222470703125,-9.31070714199841,-3.075876056344807,-0.1417734462559223
1695804839729246000,4.132245849609375,-9.302575857990979,-3.101519616167247,-0.1142127003010828
1695804839739245800,4.142245849609375,-9.294075156149267,-3.1278076113730666,-0.0858907515822444
1695804839749245000,4.152244873046875,-9.286185279682279,-3.151817140252888,-0.05649503615205176
1695804839759244000,4.162244140625,-9.279515884920954,-3.171793175832927,-0.026302946179779244
1695804839769244000,4.172243896484375,-9.273713336122036,-3.1888255591765042,0.004389293886076484
1695804839779243000,4.182242919921875,-9.268049319010972,-3.2050673766642808,0.03451917765745893
1695804839789243000,4.192242919921875,-9.261944572395086,-3.222245013697445,0.06249926783579867
1695804839799242000,4.202241943359375,-9.255269332414866,-3.240808552131057,0.0867940570975188
1695804839809241000,4.212240966796875,-9.24807971317172,-3.260708599865436,0.10574160814634524
1695804839819241000,4.222240966796875,-9.240492619043588,-3.2817963960796592,0.11616338684428483
1695804839829240000,4.232239990234375,-9.232657687634228,-3.3037466543421146,0.11695358737390488
1695804839839240200,4.242240234375,-9.224331173315644,-3.3270988883569834,0.11183957796157337
1695804839849238800,4.25223876953125,-9.215770850241183,-3.3509257541462776,0.1060632139166817
1695804839859239200,4.2622392578125,-9.207797971665858,-3.372829835179448,0.10418823209134861
1695804839869238000,4.272238037109375,-9.201429605677724,-3.3900247156083583,0.10864564989162609
1695804839879236900,4.28223681640625,-9.197548380330204,-3.400170554308593,0.11970711473259142
1695804839889237000,4.292237060546875,-9.196613145306706,-3.4021374704673883,0.1347315649203956
1695804839899235800,4.30223583984375,-9.198551419892906,-3.3962419826880095,0.1502702025748789
1695804839909236000,4.312236083984375,-9.202598064935207,-3.3847093658044933,0.16220175564810632
1695804839919235000,4.322235107421875,-9.207652425715327,-3.3707533211663363,0.16596934628700835
1695804839929234000,4.33223388671875,-9.211909498637914,-3.3594045364171263,0.15970087874308228
1695804839939234000,4.342234130859375,-9.21355668132305,-3.3555265259400007,0.1455845107103698
1695804839949233200,4.352233154296875,-9.211626005521417,-3.3616333183825016,0.12551001972453668
1695804839959233000,4.36223291015625,-9.205843914988636,-3.378277286930382,0.10029308781633153
1695804839969232100,4.372232177734375,-9.196597363215684,-3.4040862664476035,0.07194785868660547
1695804839979231000,4.38223095703125,-9.185299139609933,-3.434979417361319,0.03967837791838683
1695804839989231000,4.392231201171875,-9.174020789748429,-3.4652149811491366,0.002567547506011033
1695804839999230000,4.40222998046875,-9.164781252238154,-3.4893726863279935,-0.038086272721621205
1695804840009229800,4.412229736328125,-9.158624483174085,-3.5047912047341465,-0.08016733243414201
1695804840019229000,4.42222900390625,-9.15514423984289,-3.512656531281769,-0.12230700416583568
1695804840029228800,4.432228759765625,-9.152841808119415,-3.5169954372689127,-0.16314559410316867
1695804840039228000,4.442227783203125,-9.150747466188669,-3.5204143058016895,-0.2022149093456566
1695804840049227000,4.45222705078125,-9.148515761613845,-3.523846618337929,-0.23988792965784667
1695804840059227000,4.462226806640625,-9.14665990461409,-3.52603652959764,-0.2758010824243538
1695804840069225500,4.4722255859375,-9.145883659544587,-3.5251994942516087,-0.3100985801551491
1695804840079225600,4.4822255859375,-9.14705270332396,-3.5192651357665654,-0.3414497770346701
1695804840089224700,4.492224609375,-9.15078253750205,-3.506838492652774,-0.368300374559313
1695804840099223300,4.502223388671875,-9.1571614248842,-3.4876427937954664,-0.3913079233223572
1695804840109223700,4.5122236328125,-9.166068953961133,-3.461719540248811,-0.4123834080442786
1695804840119222500,4.522222412109375,-9.17717136273384,-3.4298812174394726,-0.4310783908378333
1695804840129222400,4.532222412109375,-9.189791190332175,-3.3942817885309458,-0.4438158169338479
1695804840139221500,4.542221435546875,-9.203481277510523,-3.3566181205689904,-0.44657742713429033
1695804840149221400,4.552221435546875,-9.217696849867702,-3.3187302884623406,-0.43643714139200745
1695804840159220500,4.562220458984375,-9.230849176907538,-3.2847824261531233,-0.4147462281854823
1695804840169219600,4.572219482421875,-9.2407696824193,-3.2596076528862117,-0.3918133155612275
1695804840179219500,4.582219482421875,-9.246743496131897,-3.2439927351251243,-0.38030729442369193
1695804840189218600,4.592218505859375,-9.249836201450227,-3.2345702422633766,-0.3853159528985619
1695804840199218400,4.602218505859375,-9.251589767119288,-3.227215495586395,-0.40441980875395234
1695804840209217500,4.612217529296875,-9.253559605887531,-3.2180873094961044,-0.43119924073852595
1695804840219216600,4.622216552734375,-9.25695684711039,-3.2045363385275003,-0.45834158775135875
1695804840229216500,4.632216552734375,-9.262537277591228,-3.185639330355823,-0.4769566737091169
1695804840239215400,4.64221533203125,-9.270779620757699,-3.161093794903159,-0.4801245996881276
1695804840249215500,4.652215576171875,-9.2809982324332,-3.1331212076112624,-0.4658416977157816
1695804840259214300,4.66221435546875,-9.291279387950897,-3.1063521508902308,-0.43941370951738207
1695804840269213400,4.67221337890625,-9.299744433957338,-3.084908088584244,-0.41045704309158026
1695804840279213300,4.68221337890625,-9.305027342796325,-3.0720556212738153,-0.38641858037821947
1695804840289212400,4.69221240234375,-9.306692061138152,-3.0689219994232055,-0.3709288964319974
1695804840299212500,4.702212646484375,-9.305933936247229,-3.072020842221379,-0.36423696104530245
1695804840309211400,4.71221142578125,-9.304853739795089,-3.0752523714885114,-0.3645562561275437
1695804840319211500,4.72221142578125,-9.305778453424573,-3.071987232212722,-0.36846192179657516
1695804840329210600,4.732210693359375,-9.310042540609835,-3.0590616996660827,-0.36828506739232686
1695804840339209500,4.74220947265625,-9.317091290077567,-3.0385604711681604,-0.359647514363192
1695804840349209600,4.752209716796875,-9.325231926435231,-3.0152479846417903,-0.34454675666932016
1695804840359208700,4.762208740234375,-9.33196503408253,-2.9961256432816383,-0.3286933174446225
1695804840369208600,4.77220849609375,-9.335017407390474,-2.9876173426553607,-0.31934272077530623
1695804840379207400,4.78220751953125,-9.332942939203978,-2.993713613703847,-0.32285361497309056
1695804840389206500,4.79220654296875,-9.325447030490636,-3.014787673653662,-0.34275263979416337
1695804840399206400,4.802206298828125,-9.313439781832695,-3.0473417435169217,-0.3793757857272401
1695804840409205500,4.81220556640625,-9.298356778991222,-3.0867770973265167,-0.427492677838169
1695804840419205400,4.822205322265625,-9.281516118827462,-3.130032593946159,-0.47616903046276415
1695804840429204500,4.83220458984375,-9.264068724942208,-3.175114721471071,-0.5158134969783946
1695804840439204400,4.842204345703125,-9.246910084870457,-3.2206200428441165,-0.5409713556431234
1695804840449203500,4.852203369140625,-9.230651608508825,-3.265682588885724,-0.5484270784765481
1695804840459202600,4.86220263671875,-9.215877233225106,-3.3088886934056876,-0.537816727537103
1695804840469202400,4.872202392578125,-9.203267927020788,-3.347621744164824,-0.5134872459879145
1695804840479201500,4.882201416015625,-9.193383661866187,-3.3794770181089637,-0.4808517083862796
1695804840489201700,4.89220166015625,-9.1859356839478,-3.4041499793335794,-0.44802704142071303
1695804840499200500,4.902200439453125,-9.18037980338633,-3.4222856477439403,-0.4230538551405072
1695804840509199400,4.912199462890625,-9.176771549761295,-3.4333126531928775,-0.41184648815598335
1695804840519199500,4.922199462890625,-9.175727009144424,-3.435771444521844,-0.41459783269073813
1695804840529198300,4.9321982421875,-9.176969702681898,-3.4310976074919104,-0.4256496437873691
1695804840539198500,4.942198486328125,-9.178818545418977,-3.4245977240785956,-0.4379495552489534
1695804840549197300,4.952197265625,-9.179749104267358,-3.4209619979247448,-0.4467805850235745
1695804840559197400,4.962197509765625,-9.179432293403147,-3.4213284931495784,-0.4504711101045832
1695804840569196500,4.972196533203125,-9.178076202619076,-3.4251159027338027,-0.4493157295243814
1695804840579195400,4.9821953125,-9.175818194559216,-3.431608771884441,-0.44587490488812326
1695804840589195500,4.992195556640625,-9.173155112829804,-3.4390880217239257,-0.4430379644291475
1695804840599194600,5.002194580078125,-9.170406690904498,-3.4464354618772863,-0.4428407613566145
1695804840609194500,5.012194580078125,-9.166872087037563,-3.455755371147394,-0.443390942585282
1695804840619193600,5.022193603515625,-9.161094672679901,-3.470837497206032,-0.4449846415175125
1695804840629192700,5.032192626953125,-9.152204094737767,-3.4934184545874594,-0.45119595378041266
1695804840639192600,5.042192626953125,-9.14009572379291,-3.5233398378595706,-0.4638028853645548
1695804840649191400,5.05219140625,-9.125319010421633,-3.558843697439134,-0.483289274264127
1695804840659191600,5.062191650390625,-9.109311878472566,-3.5961259648680683,-0.5086306728022173
1695804840669190400,5.0721904296875,-9.093875824409723,-3.6304736401498316,-0.539877788252756
1695804840679190300,5.082190185546875,-9.080218470457195,-3.658947747223079,-0.5763008085038512
1695804840689189400,5.092189453125,-9.06859116102755,-3.681837624423206,-0.6124620725462213
1695804840699188500,5.1021884765625,-9.058523355999588,-3.7010789159879085,-0.6446375548880547
1695804840709188400,5.112188232421875,-9.049353376594185,-3.7184257721081373,-0.6729762720786034
1695804840719187500,5.1221875,-9.040470397436618,-3.7353544028162955,-0.6981493648450822
1695804840729187600,5.1321875,-9.032004182386398,-3.751722184771299,-0.7196286445949226
1695804840739186400,5.1421865234375,-9.02487359985411,-3.7651828471079467,-0.7385396082267165
1695804840749185500,5.152185546875,-9.020214960393309,-3.7728894759625193,-0.7559159096371382
1695804840759185700,5.162185546875,-9.019167497166992,-3.7721003714114425,-0.7721770163472741
1695804840769184500,5.1721845703125,-9.021982554587721,-3.7622555614843964,-0.7871795012984424
1695804840779184600,5.1821845703125,-9.026825318443775,-3.7474750487208364,-0.8020216811213642
1695804840789183500,5.19218359375,-9.030480333819986,-3.7349589737579225,-0.8190811716675758
1695804840799183600,5.20218359375,-9.030211453750729,-3.730521283571422,-0.8419505906015634
1695804840809182500,5.212182373046875,-9.025335956668853,-3.735670044636726,-0.8708961145788431
1695804840819181600,5.222181640625,-9.01655936049521,-3.7493271063283085,-0.9025436640564352
1695804840829181400,5.232181396484375,-9.006044396221638,-3.7671374883070587,-0.9328611339740455
1695804840839180500,5.2421806640625,-8.996699060249329,-3.783077107977867,-0.9581846680618822
1695804840849180400,5.252180419921875,-8.990891250753402,-3.7922277981609103,-0.9763558461770415
1695804840859179500,5.262179443359375,-8.989655571478604,-3.7922400731205936,-0.98762309012264
1695804840869178600,5.2721787109375,-8.992907851272822,-3.782778709553182,-0.9942731225963681
1695804840879178500,5.282178466796875,-8.999487814185024,-3.765445589697361,-1.0005109940726309
1695804840889177600,5.292177490234375,-9.00730871706903,-3.7439012818872928,-1.0109302428867668
1695804840899177500,5.302177490234375,-9.01441358063817,-3.721673083466291,-1.0295036451272666
1695804840909176600,5.312176513671875,-9.01929901459217,-3.7019980766594407,-1.0572776411071418
1695804840919176700,5.3221767578125,-9.021343672162294,-3.6871415760502217,-1.0912073101725428
1695804840929175300,5.33217529296875,-9.020476241677999,-3.6783801774457094,-1.1273465450461952
1695804840939174400,5.34217431640625,-9.01644537872672,-3.67498527431041,-1.1698644481062888
1695804840949174500,5.352174560546875,-9.009631022536754,-3.6730426158100364,-1.2270661986224352
1695804840959173400,5.36217333984375,-9.00077960756123,-3.6688013249784706,-1.302399672026187
1695804840969173500,5.372173583984375,-8.989726298627257,-3.6625773358970877,-1.3931009565621613
1695804840979172400,5.38217236328125,-8.976303922474385,-3.656277358970046,-1.4926447421148419
1695804840989171500,5.39217138671875,-8.962223374673723,-3.64853916593343,-1.5928279946148394
1695804840999171600,5.402171630859375,-8.950539951142668,-3.636198739798367,-1.68412344565168
1695804841009170400,5.41217041015625,-8.943477757671475,-3.6163039527609944,-1.7626500160083174
1695804841019170600,5.422170654296875,-8.941941634145378,-3.588258300232887,-1.8266010946542024
1695804841029169700,5.432169677734375,-8.945510724803805,-3.554066984556615,-1.8753214325509964
1695804841039169500,5.44216943359375,-8.952485239991546,-3.5181463608697054,-1.9094608719095587
1695804841049168600,5.452168701171875,-8.960717646285891,-3.4856378837138413,-1.9303510997250675
1695804841059167500,5.46216748046875,-8.968511076641082,-3.4615941603034734,-1.9374090554125605
1695804841069167400,5.47216748046875,-8.975346475619077,-3.4488781788542866,-1.9284141403131185
1695804841079166500,5.48216650390625,-8.980988865420223,-3.448697853851318,-1.9022893728449939
1695804841089166300,5.492166259765625,-8.984943740525841,-3.4614167579099533,-1.8600442223116755
1695804841099165400,5.50216552734375,-8.98651201275587,-3.4868756088152524,-1.8040742055475711
1695804841109164500,5.51216455078125,-8.985148907709121,-3.523829959464073,-1.7378467064023018
1695804841119164400,5.522164306640625,-8.980426555362344,-3.5690976726889607,-1.6684917228862641
1695804841129163500,5.53216357421875,-8.972083089908956,-3.618438334441185,-1.605931367946416
1695804841139163400,5.542163330078125,-8.96040258898735,-3.667512161950767,-1.5591443361997603
1695804841149162200,5.552162353515625,-8.946682691192626,-3.712871060590446,-1.5303079716853796
1695804841159162600,5.56216259765625,-8.932189470937848,-3.7519150769948957,-1.5197081056073307
1695804841169161200,5.5721611328125,-8.918183741939067,-3.782838623046875,-1.525293212263286
1695804841179160300,5.582160400390625,-8.905937423828243,-3.804523216110468,-1.5428119178190827
1695804841189160400,5.592160400390625,-8.89637815284431,-3.8165234505057333,-1.5681167472064494
1695804841199159300,5.6021591796875,-8.889714603301883,-3.819957808868587,-1.5972721145421265
1695804841209159400,5.612159423828125,-8.885773172199725,-3.817650408709049,-1.6244896456830202
1695804841219158500,5.622158447265625,-8.884262767636775,-3.8124408573672173,-1.6448580415815115
1695804841229157400,5.632157470703125,-8.884431694462895,-3.8073637002333998,-1.6556690661922095
1695804841239157500,5.642157470703125,-8.884932629722357,-3.806508836969733,-1.654943820657581
1695804841249156400,5.65215625,-8.884783576640487,-3.8117449840575452,-1.6436575797505675
1695804841259156500,5.662156494140625,-8.883785213252901,-3.822286544077098,-1.62446188089326
1695804841269155600,5.672155517578125,-8.882115818735956,-3.836416776238382,-1.6000979856178164
1695804841279155500,5.682155517578125,-8.880389141073822,-3.851174492648244,-1.5740191031180322
1695804841289154300,5.692154296875,-8.878930174437166,-3.8645506915718313,-1.5492681082211435
1695804841299153400,5.7021533203125,-8.877328584459423,-3.87606051210165,-1.5295654827550054
1695804841309153300,5.7121533203125,-8.874447476065159,-3.886657017178833,-1.5193649912580847
1695804841319152400,5.72215234375,-8.86933407857418,-3.897702142806351,-1.5209259569644926
1695804841329152300,5.73215234375,-8.861555261266231,-3.911734467551112,-1.530215617226809
1695804841339151400,5.7421513671875,-8.851482195541262,-3.930548181353509,-1.5402711472950874
1695804841349150500,5.752150390625,-8.839311865276098,-3.955067413321137,-1.5473818560831247
1695804841359150300,5.762150390625,-8.825196830683947,-3.9852521237045524,-1.5505010110169648
1695804841369149400,5.7721494140625,-8.809684204253553,-4.019219859758019,-1.5510370175898074
1695804841379149300,5.7821494140625,-8.794104357805848,-4.053880254250765,-1.5492463347807526
1695804841389148400,5.7921484375,-8.779611137551068,-4.086240847368538,-1.5464309850990772
1695804841399147500,5.8021474609375,-8.767446652504802,-4.113032408182323,-1.544419791407138
1695804841409147400,5.8121474609375,-8.758513404464722,-4.131583963917196,-1.545586643229425
1695804841419146200,5.822146240234375,-8.753298300164937,-4.1410140555635095,-1.5498877014242112
1695804841429146400,5.832146484375,-8.751810107433796,-4.142834841249883,-1.553425081770122
1695804841439145200,5.842145263671875,-8.753512235176563,-4.140106877590716,-1.551105114389956
1695804841449145300,5.852145263671875,-8.757959277713299,-4.134813739618659,-1.5400811776809393
1695804841459144400,5.86214453125,-8.764551515585184,-4.128201043480635,-1.5201898977749049
1695804841469143300,5.872143310546875,-8.772647728279232,-4.1212110384628176,-1.492196998347342
1695804841479143400,5.882143310546875,-8.78171716991961,-4.113756630803644,-1.459053438158333
1695804841489142500,5.892142578125,-8.790888318368792,-4.105412580828369,-1.426974000069499
1695804841499142400,5.902142333984375,-8.798983946540952,-4.096937597949803,-1.401201553170383
1695804841509141500,5.9121416015625,-8.804448641687632,-4.090577707529068,-1.3853690471358597
1695804841519140600,5.922140625,-8.805891826233267,-4.089126047416031,-1.3804729456573723
1695804841529140500,5.932140380859375,-8.80340877724588,-4.093241958302259,-1.3841069182455539
1695804841539139600,5.9421396484375,-8.798232251390814,-4.101490731209516,-1.3925744484700262
1695804841549139500,5.952139404296875,-8.791858040183783,-4.111764872464537,-1.402500945331156
1695804841559138300,5.96213818359375,-8.785030824512242,-4.123397734852135,-1.4111005775026977
1695804841569138200,5.97213818359375,-8.778129374560713,-4.136270952689648,-1.416366827467829
1695804841579137300,5.98213720703125,-8.771997155416011,-4.148993071618676,-1.4171489177562295
1695804841589136400,5.992136474609375,-8.768034681525826,-4.159229218950867,-1.4116536813408136
1695804841599136300,6.00213623046875,-8.767581092539428,-4.164342908702791,-1.399341896778345
1695804841609135400,6.01213525390625,-8.771198698514699,-4.162190699104965,-1.382977475824207
1695804841619135500,6.022135498046875,-8.779149365258217,-4.15094420568645,-1.3662287317276
1695804841629134300,6.03213427734375,-8.791120958080887,-4.130217936260998,-1.3519896323643623
1695804841639134500,6.042134521484375,-8.80592631302476,-4.1025013695567845,-1.3399740542694925
1695804841649133600,6.052133544921875,-8.821893697485327,-4.070633236131072,-1.3321123809836803
1695804841659132400,6.06213232421875,-8.83805631225705,-4.036445719847083,-1.3290047703571617
1695804841669132500,6.072132568359375,-8.854522878411412,-4.000756566828489,-1.327312579486519
1695804841679131400,6.08213134765625,-8.871772703897953,-3.963555547942221,-1.3237294603027403
1695804841689131500,6.092131591796875,-8.890187481510639,-3.925308234873414,-1.314117582348734
1695804841699130400,6.10213037109375,-8.909351031664013,-3.889684548306465,-1.2900380569726229
1695804841709129200,6.112129150390625,-8.92739405335486,-3.859135680785775,-1.2566212328001856
1695804841719129300,6.12212939453125,-8.943440932792425,-3.8318589668035505,-1.225605332289636
1695804841729128400,6.13212841796875,-8.95829480305314,-3.8057466204255816,-1.1981783961817623
1695804841739128300,6.14212841796875,-8.972216360899806,-3.7805768155947326,-1.1734363883089274
1695804841749127400,6.15212744140625,-8.985249445474148,-3.7561060989439485,-1.1521048464667052
1695804841759127300,6.162127197265625,-8.997353724765777,-3.732640175421536,-1.1337601384155451
1695804841769126400,6.17212646484375,-9.007741847789287,-3.711154904322326,-1.1217404686674475
1695804841779125500,6.18212548828125,-9.015452860558032,-3.6924940429940816,-1.1213762384649366
1695804841789125400,6.19212548828125,-9.019972968330979,-3.6775074862644073,-1.1342007217898964
1695804841799124500,6.20212451171875,-9.02114727280736,-3.6673186852052804,-1.157608412319049
1695804841809124400,6.212124267578125,-9.019027796435356,-3.6631273709952827,-1.1870219921994953
1695804841819123500,6.22212353515625,-9.0144685256958,-3.664714055664837,-1.2163929019819943
1695804841829122300,6.232122314453125,-9.008909138002991,-3.670313775368035,-1.2404558415494857
1695804841839122200,6.2421220703125,-9.004481384688615,-3.6762048792332407,-1.255077802750468
1695804841849121300,6.252121337890625,-9.003561931756138,-3.6779479235082864,-1.2565658493511378
1695804841859121400,6.262121337890625,-9.007821927288173,-3.67232774553895,-1.242390462873876
1695804841869120300,6.272120361328125,-9.017169601348042,-3.658662208279967,-1.2145914785832166
1695804841879120400,6.282120361328125,-9.029875938186049,-3.6383795909687873,-1.1806442738611251
1695804841889119500,6.292119384765625,-9.043363780790568,-3.61534182973057,-1.147719982445985
1695804841899118300,6.302118408203125,-9.05504895788729,-3.594522913585603,-1.1206606375414878
1695804841909118500,6.312118408203125,-9.06253317616284,-3.581486321879923,-1.1017401754289864
1695804841919117600,6.32211767578125,-9.063830814757942,-3.5812364387720823,-1.0918334792468696
1695804841929117400,6.332117431640625,-9.058359689870477,-3.5948727499365805,-1.09242486926876
1695804841939116500,6.342116455078125,-9.046653469985722,-3.620981881444156,-1.1031453660517931
1695804841949115400,6.352115478515625,-9.030365183007717,-3.6556437372416255,-1.122121869200468
1695804841959115500,6.362115478515625,-9.011927609041333,-3.6933649806097146,-1.1465605832777916
1695804841969114400,6.3721142578125,-8.993869389781356,-3.728971423780918,-1.1728063467770815
1695804841979114200,6.3821142578125,-8.978533873483538,-3.7575995523720978,-1.1986466712806374
1695804841989113300,6.39211328125,-8.967422112360596,-3.776123635578155,-1.2233633985817431
1695804841999112400,6.402112548828125,-8.96098185018003,-3.7838843327075242,-1.2463599510267376
1695804842009112300,6.4121123046875,-8.958884001117944,-3.78239117154032,-1.2658208766914902
1695804842019111400,6.422111328125,-8.959889963290095,-3.7742601797938344,-1.2828531139045953
1695804842029111300,6.432111328125,-8.962427957335114,-3.762479725629091,-1.299621585614979
1695804842039110400,6.4421103515625,-8.964908668234944,-3.7503710624232887,-1.3173885668434202
1695804842049110500,6.452110595703125,-8.966247807884216,-3.7400033976659177,-1.337594319526106
1695804842059109400,6.462109375,-8.965805909335613,-3.732813486161828,-1.360446495064348
1695804842069108500,6.4721083984375,-8.963669481828807,-3.729399878326058,-1.3836875237897037
1695804842079108400,6.4821083984375,-8.960827536401153,-3.728383979281783,-1.4046734670646488
1695804842089107500,6.492107421875,-8.959159895449876,-3.7269302733421323,-1.4190931836917995
1695804842099107600,6.502107666015625,-8.960721153417229,-3.7214822370693086,-1.4235264899641276
1695804842109106400,6.5121064453125,-8.967166091772913,-3.7082530454009768,-1.4174528691388666
1695804842119106600,6.5221064453125,-8.979086246669292,-3.6849785527974364,-1.4026158038824796
1695804842129105700,6.532105712890625,-8.99561184953451,-3.6523052404686807,-1.3820356649294494
1695804842139104500,6.5421044921875,-9.014528146928548,-3.61400824303925,-1.3592664914995432
1695804842149104600,6.552104736328125,-9.03326616514623,-3.5750974976256487,-1.3375962192222475
1695804842159103500,6.562103515625,-9.049427026352285,-3.540721180771291,-1.319675508736819
1695804842169103400,6.572103271484375,-9.061043229866028,-3.514866608546674,-1.3090410097368061
1695804842179102500,6.5821025390625,-9.066943978342414,-3.5000311507254835,-1.3079372862786054
1695804842189101600,6.5921015625,-9.067071988636254,-3.496731816919148,-1.3158489361859858
1695804842199101400,6.602101318359375,-9.06262494609952,-3.502649516530335,-1.3306602824792264
1695804842209100500,6.6121005859375,-9.05592866333127,-3.5130350092053413,-1.3487491891384125
1695804842219100400,6.622100341796875,-9.04971928729713,-3.5220553510069843,-1.3667800820000469
1695804842229099500,6.632099609375,-9.046091744449734,-3.525229304867983,-1.382522717794031
1695804842239099400,6.642099365234375,-9.046237290400265,-3.51984468922019,-1.3952300775453448
1695804842249098500,6.652098388671875,-9.049794106099009,-3.506274136768281,-1.406290985263884
1695804842259097600,6.66209765625,-9.0551448194772,-3.487645131883025,-1.4181214160501956
1695804842269097500,6.672097412109375,-9.060406685528159,-3.46736339135468,-1.4341579202242194
1695804842279096600,6.6820966796875,-9.064091511520743,-3.448772380392253,-1.4555419229060411
1695804842289096700,6.6920966796875,-9.065265815997122,-3.4347076146826145,-1.4812589863561092
1695804842299095300,6.70209521484375,-9.063478348058462,-3.426797279949486,-1.5102327135145663
1695804842309094400,6.712094482421875,-9.058723847007752,-3.4257150376707313,-1.5409033077187835
1695804842319094500,6.722094482421875,-9.051905983686447,-3.430089599493146,-1.5709464176744221
1695804842329093400,6.73209326171875,-9.044389032185077,-3.437343516144156,-1.5981494818985462
1695804842339093500,6.742093505859375,-9.036655223062635,-3.4461008230954406,-1.6228483082167804
1695804842349092600,6.752092529296875,-9.028584729331731,-3.455891564747691,-1.6467704510740935
1695804842359092500,6.762092529296875,-9.019743835750221,-3.466642968125641,-1.6724201483763754
1695804842369091600,6.772091552734375,-9.00941474943757,-3.47867476670295,-1.7028370600804685
1695804842379090400,6.78209033203125,-8.997047435295581,-3.492919857415557,-1.7386873950101434
1695804842389090600,6.792090576171875,-8.982011778727173,-3.5100799587920304,-1.7813427337795495
1695804842399089700,6.802089599609375,-8.963233428499102,-3.531668105743825,-1.8325258085280656
1695804842409089500,6.812089599609375,-8.939463845854997,-3.5599127879753705,-1.8929861224487423
1695804842419088600,6.822088623046875,-8.909248740333318,-3.5972695819452403,-1.9634988976977765
1695804842429087500,6.83208740234375,-8.871724773102999,-3.6446626167610288,-2.044339297954738
1695804842439087400,6.84208740234375,-8.82753959441781,-3.7000460658088326,-2.134148455956578
1695804842449086500,6.85208642578125,-8.779595355460048,-3.7579391595900056,-2.2286717829987404
1695804842459086300,6.86208642578125,-8.732168418374657,-3.81211820128411,-2.3210718342766166
1695804842469085400,6.87208544921875,-8.689421748059987,-3.8574320917382834,-2.405108546356857
1695804842479085600,6.88208544921875,-8.65385300655067,-3.8904382892832157,-2.4790523189678786
1695804842489084400,6.89208447265625,-8.627436124268174,-3.908192849421501,-2.542391110934317
1695804842499083500,6.90208349609375,-8.611824129116535,-3.9101100812196727,-2.5918928084671498
1695804842509083400,6.91208349609375,-8.606580967766046,-3.895896262428164,-2.630425368218124
1695804842519082500,6.92208251953125,-8.60810364728868,-3.864950796805322,-2.670783974352479
1695804842529082600,6.93208251953125,-8.612735983264447,-3.817096281957626,-2.7241400092259047
1695804842539081500,6.94208154296875,-8.616918237385153,-3.756203421838581,-2.794643870516121
1695804842549080300,6.952080322265625,-8.61686563041508,-3.6901390043005344,-2.881473428185284
1695804842559080700,6.962080810546875,-8.610566238009929,-3.626289632463455,-2.9796909335702657
1695804842569079300,6.972079345703125,-8.598816763505338,-3.569403377637267,-3.0805995777353643
1695804842579079400,6.982079345703125,-8.584602944713831,-3.5217215890079734,-3.1737133302405476
1695804842589078500,6.99207861328125,-8.572547180739045,-3.481757242888212,-3.2494907480195163
1695804842599078400,7.002078369140625,-8.566509069618583,-3.445577676004171,-3.303529504460096
1695804842609077500,7.012077392578125,-8.56800544565618,-3.4108488924503324,-3.3355326624423265
1695804842619076600,7.02207666015625,-8.576606685262918,-3.3768136441186067,-3.3480332475751635
1695804842629076500,7.032076416015625,-8.590247672602533,-3.342795639182627,-3.3472000116214153
1695804842639075600,7.04207568359375,-8.60664643421769,-3.3083591165736315,-3.3392788632333277
1695804842649075500,7.052075439453125,-8.623426888626813,-3.276056683383882,-3.3278128818452357
1695804842659074600,7.062074462890625,-8.638237504267693,-3.24988442351222,-3.3150396172508594
1695804842669073700,7.07207373046875,-8.649476691162585,-3.233493260681629,-3.301735314519703
1695804842679073500,7.082073486328125,-8.65659382969141,-3.228912362632155,-3.2875358165144917
1695804842689072600,7.09207275390625,-8.659639773258567,-3.237404296645522,-3.2711218573302028
1695804842699072500,7.102072509765625,-8.659300750562549,-3.2579102013185617,-3.2516032101288435
1695804842709071400,7.1120712890625,-8.656608442738651,-3.287705327862501,-3.228700473447144
1695804842719071500,7.122071533203125,-8.652387025651334,-3.3229248175427317,-3.20386589192003
1695804842729070300,7.1320703125,-8.647279473379253,-3.360233388456702,-3.1786431878581642
1695804842739069400,7.1420693359375,-8.641659879931806,-3.3969416553899645,-3.1548189524173735
1695804842749069600,7.152069580078125,-8.635233646276593,-3.432010046161711,-3.1343951730698345
1695804842759068400,7.162068359375,-8.62731220562756,-3.465319026045501,-3.119524643935263
1695804842769068500,7.172068603515625,-8.618038181325792,-3.4969153567925093,-3.1098850011914965
1695804842779067400,7.1820673828125,-8.60884891269803,-3.527276885047555,-3.101035339781642
1695804842789066500,7.19206640625,-8.601243113869428,-3.556656124266982,-3.088558427785337
1695804842799066600,7.202066650390625,-8.595939746764302,-3.585436520810425,-3.0699910899594425
1695804842809065500,7.2120654296875,-8.593223473542928,-3.614320669989288,-3.043612493860721
1695804842819065600,7.222065673828125,-8.59256880902648,-3.6441195959255097,-3.009740619397163
1695804842829064700,7.232064697265625,-8.592821322482823,-3.6757349236339327,-2.970316663764417
1695804842839064600,7.242064697265625,-8.592904909113049,-3.709588677918911,-2.9276816371306777
1695804842849063400,7.2520634765625,-8.59224907555282,-3.7462192034408446,-2.8826173375234005
1695804842859062500,7.2620625,-8.590512461018562,-3.7855288850441573,-2.8360633838802576
1695804842869062400,7.2720625,-8.588146900931001,-3.8259780920714137,-2.7885499375551936
1695804842879061500,7.2820615234375,-8.585720550566911,-3.865657483769953,-2.740890945279598
1695804842889061400,7.292061279296875,-8.583989196729659,-3.9030990334138274,-2.692830094204843
1695804842899060500,7.302060546875,-8.583217627835273,-3.9376650276213883,-2.6445328040257094
1695804842909059600,7.3120595703125,-8.583085525888205,-3.9693601425677536,-2.597152920952439
1695804842919059500,7.3220595703125,-8.58311241389513,-3.9991231204077597,-2.550996734455228
1695804842929058600,7.33205859375,-8.58279501850903,-4.028433970566094,-2.5055399283990263
1695804842939058400,7.342058349609375,-8.582033386486769,-4.057840682314336,-2.4602882895261047
1695804842949057500,7.3520576171875,-8.58012842964828,-4.087772586980462,-2.417001959376782
1695804842959057700,7.3620576171875,-8.576373461028933,-4.118285506404936,-2.3782190781265498
1695804842969056500,7.372056396484375,-8.57024591805935,-4.148764815820753,-2.347129820118844
1695804842979055400,7.382055419921875,-8.562599202698468,-4.177636397778987,-2.323709927695244
1695804842989055500,7.392055419921875,-8.554657888305186,-4.204237988978624,-2.304906589156389
1695804842999054300,7.402054443359375,-8.547509770116209,-4.228203678716719,-2.2875220313742757
1695804843009054500,7.412054443359375,-8.541213884842396,-4.251218643601239,-2.2683010519452393
1695804843019053600,7.422053466796875,-8.534593005397916,-4.27541346592009,-2.2476548620186745
1695804843029052400,7.432052490234375,-8.526865626016258,-4.300623602761328,-2.2288089995123443
1695804843039052500,7.442052490234375,-8.51876882880032,-4.323732091148197,-2.2150167671337724
1695804843049051600,7.4520517578125,-8.512195295628905,-4.339864895303547,-2.2087309648625553
1695804843059051500,7.462051513671875,-8.509225924429296,-4.343668086978793,-2.212691100665182
1695804843069050600,7.472050537109375,-8.512132751786709,-4.330230513256788,-2.2277974843822417
1695804843079050500,7.482050537109375,-8.522624919706583,-4.295778500817716,-2.254227518407255
1695804843089049600,7.492049560546875,-8.540586108332873,-4.240378392896056,-2.2908428463600576
1695804843099048700,7.502048583984375,-8.563633806443214,-4.168343084254861,-2.3365520197421312
1695804843109048600,7.512048583984375,-8.5880902023077,-4.087301754598319,-2.38936211117059
1695804843119047700,7.522047607421875,-8.610299696028232,-4.008244876757264,-2.4427630080990492
1695804843129047600,7.532047607421875,-8.627451906359195,-3.9417330077126618,-2.4900191186621785
1695804843139046700,7.542046630859375,-8.63773598448634,-3.89455215434283,-2.528311732177436
1695804843149045800,7.552045654296875,-8.641363527333736,-3.8681162750989198,-2.556344817484915
1695804843159045600,7.562045654296875,-8.640564485910534,-3.858219442723691,-2.5739424334958194
1695804843169044700,7.572044677734375,-8.63928672105968,-3.856528420896828,-2.580754743859172
1695804843179044600,7.582044677734375,-8.640352304464578,-3.856694132852554,-2.576938400441408
1695804843189043500,7.59204345703125,-8.643684079235792,-3.855845114807784,-2.567014680059254
1695804843199043600,7.602043701171875,-8.647321558955312,-3.8542794729262586,-2.557097973939776
1695804843209042400,7.61204248046875,-8.648915550148487,-3.854560920216143,-2.5512749668747183
1695804843219041500,7.62204150390625,-8.646603766074776,-3.859198809149861,-2.5521008963048457
1695804843229041700,7.632041748046875,-8.639363877949117,-3.8706796958461402,-2.559220957443118
1695804843239040500,7.64204052734375,-8.627385855385661,-3.890490019470453,-2.5695690407171843
1695804843249040600,7.65204052734375,-8.6122625205338,-3.9185236892998216,-2.5776912646353245
1695804843259039700,7.662039794921875,-8.596477506902813,-3.953491834567487,-2.5769877925410865
1695804843269038600,7.67203857421875,-8.582640704730153,-3.9931504757389424,-2.561915311093628
1695804843279038700,7.682038818359375,-8.573091370618343,-4.032857632227242,-2.5315099436968564
1695804843289037800,7.692037841796875,-8.569751997062564,-4.066939934571087,-2.4879192237734795
1695804843299037700,7.70203759765625,-8.573664202070235,-4.091566134044528,-2.4334656029216943
1695804843309036800,7.712036865234375,-8.583658357340097,-4.106014053852856,-2.3731506888210774
1695804843319036700,7.72203662109375,-8.597199975958466,-4.112459284469485,-2.3121885628581045
1695804843329035500,7.732035400390625,-8.611300982025265,-4.1154488216742875,-2.2536554176077246
1695804843339034600,7.74203466796875,-8.6231895727396,-4.11888434908092,-2.201311482386291
1695804843349034500,7.752034423828125,-8.631220318982004,-4.125854772615432,-2.1563271161474287
1695804843359033600,7.76203369140625,-8.635100375285743,-4.13836383331567,-2.1164526402682067
1695804843369033500,7.772033447265625,-8.63486598200798,-4.158410596044361,-2.077761967346072
1695804843379032600,7.782032470703125,-8.63068723501861,-4.188759849339723,-2.0336939852997657
1695804843389031700,7.79203173828125,-8.620975988343357,-4.230679713441432,-1.9875887983374296
1695804843399031600,7.802031494140625,-8.605153565311431,-4.2789433936119075,-1.9525271295674145
1695804843409030700,7.81203076171875,-8.586129715889692,-4.326591864493489,-1.9311556941062211
1695804843419030800,7.82203076171875,-8.56791192215383,-4.366879158957302,-1.9213621759749948
1695804843429029600,7.832029541015625,-8.553401166242361,-4.395560186779499,-1.9206164721742272
1695804843439029800,7.84202978515625,-8.545053024613857,-4.408657861022651,-1.9277404788352548
1695804843449028600,7.852028564453125,-8.545471542286872,-4.402826670651137,-1.9391794260859487
1695804843459027500,7.86202734375,-8.55638456596732,-4.377835729518533,-1.9476193376511335
1695804843469027600,7.872027587890625,-8.577524384629726,-4.336515292614698,-1.9470733942061662
1695804843479026400,7.8820263671875,-8.607234463238715,-4.2830201415315265,-1.9343321321852505
1695804843489026600,7.892026611328125,-8.64243904761076,-4.22366954241842,-1.9076805643640458
1695804843499025700,7.902025634765625,-8.679593012484908,-4.16483712196052,-1.86793380651772
1695804843509024500,7.9120244140625,-8.715020884218811,-4.1123824198409915,-1.8185460907533764
1695804843519024600,7.922024658203125,-8.746817121452093,-4.069084837645292,-1.7624207372970877
1695804843529023700,7.932023681640625,-8.775499610579013,-4.033863886660337,-1.6996845873989164
1695804843539023600,7.942023681640625,-8.802913102683425,-4.002335944974422,-1.6310785225540398
1695804843549022700,7.952022705078125,-8.830705364972353,-3.9688302734747527,-1.5612217269957065
1695804843559022600,7.962022705078125,-8.859456243160366,-3.930913507534563,-1.4927609158404171
1695804843569021700,7.972021728515625,-8.888553742828964,-3.8885464841872452,-1.4294044420868157
1695804843579020500,7.9820205078125,-8.916984303021431,-3.841826818588376,-1.377732414777577
1695804843589020700,7.992020751953125,-8.943035274600982,-3.793707515324652,-1.3417480782046913
1695804843599019500,8.00201953125,-8.964480213689804,-3.7487037137329575,-1.3250266605064271
1695804843609019400,8.012019287109375,-8.979546265396475,-3.7106355566233393,-1.330158616567403
1695804843619018500,8.0220185546875,-8.987754121771454,-3.681592709751427,-1.3551881361447273
1695804843629017600,8.032017578125,-8.98999927034974,-3.6610485188946127,-1.3953564804039895
1695804843639017500,8.042017578125,-8.98815568830967,-3.6465135053247213,-1.4444300156526266
1695804843649016600,8.0520166015625,-8.984409487518668,-3.6349946247056124,-1.4958563976377248
1695804843659016700,8.0620166015625,-8.980512480080128,-3.6234964946135877,-1.546303120935708
1695804843669015600,8.072015625,-8.97763663238287,-3.6094866739615794,-1.5950006624788045
1695804843679015700,8.082015625,-8.975907616633176,-3.591766308353841,-1.6439815510079263
1695804843689014800,8.092014892578124,-8.974627513694763,-3.5714597256451843,-1.694438795699924
1695804843699013600,8.102013671875,-8.973120031741262,-3.549507421556115,-1.7477135820306837
1695804843709013800,8.112013671875,-8.971151946538686,-3.527515369978547,-1.8015128306269645
1695804843719012600,8.1220126953125,-8.969027209469676,-3.5073593016564844,-1.8507744357936082
1695804843729012700,8.1320126953125,-8.967408668357134,-3.489837965752184,-1.8912942238390444
1695804843739011600,8.142011474609374,-8.966847527343035,-3.4754864920556545,-1.9201628831878303
1695804843749011500,8.152011474609376,-8.966903641444445,-3.4656668165698647,-1.937569652801752
1695804843759010600,8.162010498046875,-8.96674289792478,-3.46180575722754,-1.9452008783325552
1695804843769009700,8.172009765625,-8.965320756167173,-3.465263496465981,-1.9455996683917938
1695804843779009500,8.182009521484375,-8.961870323452352,-3.4764033146396276,-1.9416190743230282
1695804843789008600,8.192008544921874,-8.956284047752618,-3.4947444424942136,-1.9344576582610606
1695804843799008500,8.202008544921876,-8.948995644310116,-3.5185037960052488,-1.9250961018063126
1695804843809007600,8.212007568359375,-8.940349981039763,-3.5455528387114406,-1.9156170564517379
1695804843819006700,8.2220068359375,-8.930769667267798,-3.574405131447315,-1.9066639346674084
1695804843829006600,8.232006591796875,-8.921009905275701,-3.603203063647449,-1.8981300612084566
1695804843839005700,8.242005615234374,-8.912545443791151,-3.6282135862633584,-1.8902347779139874
1695804843849005800,8.252005859375,-8.90655701703131,-3.6461926028072833,-1.8838542830966412
1695804843859004400,8.26200439453125,-8.903456128406525,-3.6562335198283193,-1.8790442524664104
1695804843869004800,8.2720048828125,-8.902261950185894,-3.6600793816015122,-1.8772151373431085
1695804843879003600,8.282003662109375,-8.901434851711988,-3.660900634856522,-1.8795339356794951
1695804843889002500,8.29200244140625,-8.899106701025365,-3.6636747757449744,-1.885145930342376
1695804843899002600,8.302002685546874,-8.893809763661027,-3.6722932587474584,-1.8933555402830242
1695804843909001500,8.31200146484375,-8.88475668863356,-3.687816406571865,-1.9056465743184088
1695804843919001600,8.322001708984375,-8.871894284451008,-3.710248310871422,-1.921962479955703
1695804843929000700,8.332000732421875,-8.85506823733449,-3.739275083391368,-1.9431866159006952
1695804843938999600,8.34199951171875,-8.835040179306269,-3.772996151207387,-1.9689969105921685
1695804843948999700,8.351999755859374,-8.81298967553973,-3.808999192480743,-1.9982794114388525
1695804843958998800,8.361998779296876,-8.790006859359144,-3.8454102300330995,-2.0295283900529144
1695804843968998700,8.37199853515625,-8.76739287649095,-3.880525382556021,-2.0602743875809013
1695804843978997800,8.381997802734375,-8.746306249320506,-3.9126457371771335,-2.088950885358453
1695804843988996600,8.39199658203125,-8.727755278107523,-3.940423386418819,-2.11417490459457
1695804843998996700,8.401996826171874,-8.712049759453535,-3.963702847458422,-2.1353300669565796
1695804844008995600,8.41199560546875,-8.69866596174538,-3.9828707815259694,-2.1541446575418113
1695804844018995500,8.421995361328126,-8.686555252712964,-3.999285325232148,-2.172523925449699
1695804844028994600,8.43199462890625,-8.675159998473525,-4.014636039099097,-2.1896765741720796
1695804844038994400,8.441994384765625,-8.665089270836114,-4.029355469325185,-2.202477019034326
1695804844048993500,8.45199365234375,-8.656776200520993,-4.042916377165914,-2.210302305832505
1695804844058992600,8.46199267578125,-8.65028683850169,-4.054967464965582,-2.213630719602853
1695804844068992500,8.471992431640626,-8.645693665492534,-4.065681751203536,-2.211923623424023
1695804844078992000,8.481991943359375,-8.642614988699554,-4.074561223229765,-2.207608682834357
1695804844088992000,8.491991943359375,-8.640002175852656,-4.081078350038826,-2.2057978340201077
1695804844098990800,8.501990966796875,-8.636647020205855,-4.086922984413802,-2.2081156094431877
1695804844108990000,8.511989990234374,-8.631362357801198,-4.09481578349024,-2.2141472908228637
1695804844118989800,8.52198974609375,-8.62404881991744,-4.105594367136061,-2.2226699122354385
1695804844128989000,8.531989013671875,-8.6156176761806,-4.118410594089329,-2.231638962241262
1695804844138989000,8.541989013671875,-8.606943371337652,-4.132588464784622,-2.238889810152352
1695804844148988000,8.55198779296875,-8.598537946563958,-4.1472094030722975,-2.244143931288272
1695804844158988000,8.561988037109375,-8.59107769368589,-4.162158842661976,-2.2450389804318545
1695804844168987100,8.571987060546874,-8.58512842989266,-4.178277326031029,-2.2378460001878437
1695804844178986000,8.581986083984376,-8.580715874147415,-4.197620616665482,-2.218485904549062
1695804844188986000,8.591986083984375,-8.576918819952011,-4.2201892990872265,-2.1901704951688648
1695804844198985200,8.601985107421875,-8.573608087968825,-4.243415860895812,-2.1580201838009057
1695804844208985000,8.611985107421875,-8.5709514359802,-4.263844608679413,-2.128098654398322
1695804844218984000,8.62198388671875,-8.571036776176095,-4.277992084236443,-2.0991646747283634
1695804844228983000,8.631983154296876,-8.577036308851838,-4.2825349883630865,-2.065121827612072
1695804844238983000,8.64198291015625,-8.590929225125908,-4.276096772009134,-2.0202271854832765
1695804844248982000,8.65198193359375,-8.612753518921137,-4.260342153516412,-1.9596797778010366
1695804844258982000,8.66198193359375,-8.641703719073533,-4.236908963219821,-1.881474694483727
1695804844268981000,8.67198095703125,-8.675258782672882,-4.2072807176753875,-1.7913852582357823
1695804844278980900,8.68198095703125,-8.710195071497559,-4.174696252673864,-1.69552352219671
1695804844288980000,8.69197998046875,-8.74292362114489,-4.143175909772515,-1.6018008440129459
1695804844298979000,8.70197900390625,-8.770659769332408,-4.116590977446735,-1.5164390208087861
1695804844308979000,8.71197900390625,-8.793574196451901,-4.094477637577056,-1.441768102966994
1695804844318978000,8.72197802734375,-8.813528604722023,-4.071364765276015,-1.3842268913634121
1695804844328978200,8.731978271484374,-8.832427950981259,-4.044157609398662,-1.3429044086329638
1695804844338977000,8.74197705078125,-8.851153109717368,-4.012961383885145,-1.3128658287219703
1695804844348975900,8.751975830078125,-8.869401298591495,-3.979212259018421,-1.2922726841568946
1695804844358976000,8.76197607421875,-8.885796553075313,-3.947926893916726,-1.2754893071383238
1695804844368974800,8.771974853515625,-8.898022997441887,-3.926087110291421,-1.2575402473412454
1695804844378975000,8.78197509765625,-8.904317713671922,-3.9171570771217343,-1.2407220912702381
1695804844388973800,8.791973876953126,-8.903712148994208,-3.9218846901655193,-1.230086861617863
1695804844398974000,8.801973876953125,-8.896099920424819,-3.939445189036429,-1.2290486046113074
1695804844408973000,8.81197314453125,-8.882031063061952,-3.968613415853679,-1.2369358507297932
1695804844418972000,8.821971923828125,-8.86297623398006,-4.007342667220533,-1.2486962850198149
1695804844428972000,8.831971923828124,-8.841557013854384,-4.050860906429588,-1.2600729806892572
1695804844438971100,8.84197119140625,-8.820231901752948,-4.0934988556727765,-1.2716786628089845
1695804844448971000,8.851970947265626,-8.800886565291881,-4.1308465895533555,-1.2848656227707862
1695804844458970000,8.86197021484375,-8.784447471666336,-4.162266686950624,-1.2959164474867284
1695804844468969200,8.87196923828125,-8.770577351745963,-4.188304506787658,-1.3059336913712323
1695804844478969000,8.881968994140625,-8.757989088329673,-4.209857290165126,-1.3210256081715226
1695804844488968000,8.891968017578124,-8.745002765506506,-4.228893122285604,-1.3460210793487726
1695804844498967800,8.9019677734375,-8.730525911864637,-4.246866878132522,-1.3829038260661064
1695804844508967000,8.911966796875,-8.713714477795362,-4.265570994080603,-1.430550689512491
1695804844518967000,8.921967041015625,-8.694162805107235,-4.28754492547959,-1.482861453116685
1695804844528966000,8.9319658203125,-8.673436827942728,-4.313254244014621,-1.5289605025991797
1695804844538965000,8.941965087890624,-8.654689457374811,-4.338706665179133,-1.5628049045339225
1695804844548964900,8.95196484375,-8.641133225709199,-4.358204269592464,-1.5834331204123795
1695804844558964000,8.9619638671875,-8.63419202826917,-4.369108817705512,-1.5912250894628464
1695804844568964000,8.971964111328125,-8.633162100699543,-4.372204737894236,-1.5883068639285862
1695804844578963000,8.981962890625,-8.63607594231963,-4.3703529725477095,-1.5775275496304035
1695804844588962000,8.991962158203124,-8.640487329021095,-4.366975020547211,-1.5626543901473282
1695804844598962200,9.001962158203124,-8.643578280773758,-4.3657156681358815,-1.5490218783751128
1695804844608961000,9.0119609375,-8.643447932392359,-4.369838008762896,-1.5380859122104942
1695804844618961200,9.021961181640625,-8.639258664008974,-4.380961752584576,-1.529955651116371
1695804844628960000,9.0319599609375,-8.63124954507649,-4.398680364626646,-1.52431106935814
1695804844638959900,9.0419599609375,-8.620230722934007,-4.4218420445054765,-1.5196445388518274
1695804844648959000,9.051958984375,-8.608657774040102,-4.446911019310355,-1.5120786336421965
1695804844658958000,9.0619580078125,-8.599633340585232,-4.468722745884954,-1.4990699528567493
1695804844668958000,9.0719580078125,-8.596172970998287,-4.482609524679184,-1.47729446663931
1695804844678957000,9.08195703125,-8.599721018868685,-4.486296104237437,-1.4451061613485217
1695804844688957000,9.09195703125,-8.609337572997807,-4.480687616705894,-1.4046785816311835
1695804844698956000,9.1019560546875,-8.621927589979768,-4.469730461622774,-1.3617114004336297
1695804844708955100,9.111955078125,-8.63342981172502,-4.458175925168395,-1.3262515261262655
1695804844718955000,9.121955078125,-8.640375685340166,-4.450357360371947,-1.3071383909858763
1695804844728954000,9.1319541015625,-8.641331378629802,-4.449775761091709,-1.30279510108456
1695804844738954000,9.1419541015625,-8.637375919002293,-4.456548323966563,-1.3058683710500598
1695804844748953000,9.151953125,-8.631738205376267,-4.466706437626481,-1.308438952190429
1695804844758953200,9.161953125,-8.62852567307055,-4.473986657762527,-1.3047491577617822
1695804844768951800,9.171951904296876,-8.630387959811092,-4.47337670917064,-1.29448217689991
1695804844778951000,9.181950927734375,-8.638048703697324,-4.463123026181758,-1.2786829886130988
1695804844788951000,9.191950927734375,-8.64954332665801,-4.445087895536423,-1.2637157211057841
1695804844798950000,9.201949951171875,-8.660208513057231,-4.425067144031822,-1.260935150476545
1695804844808950000,9.211949951171874,-8.664449803888797,-4.411604143607616,-1.278841832436621
1695804844818948900,9.221948974609376,-8.65795342760682,-4.412469528265297,-1.3192188510105014
1695804844828948000,9.231947998046875,-8.638764743012189,-4.431076321318745,-1.3811936611473559
1695804844838948000,9.241947998046875,-8.608965232554077,-4.46203639998883,-1.4650395268306136
1695804844848947000,9.251947021484375,-8.575629949185252,-4.490048734769225,-1.571122066502273
1695804844858947000,9.261947021484374,-8.548788119488954,-4.500432181617617,-1.6836629885330796
1695804844868946200,9.2719462890625,-8.535137195277214,-4.491193520890176,-1.7751051545642316
1695804844878946000,9.281946044921876,-8.53544173118174,-4.461063171042501,-1.8481151534564793
1695804844888945200,9.291945068359375,-8.54750918559432,-4.410963507616519,-1.911510644046217
1695804844898944000,9.301944091796875,-8.562498664933443,-4.345531542763114,-1.9925752084478734
1695804844908944000,9.31194384765625,-8.572087162011861,-4.26791755720675,-2.115321590411663
1695804844918943000,9.32194287109375,-8.574256322744489,-4.179705313007533,-2.2765273207597434
1695804844928942800,9.33194287109375,-8.573946526142954,-4.082866402499377,-2.4470443386800587
1695804844938942000,9.34194189453125,-8.578978090569377,-3.9813656376600264,-2.5923437671050427
1695804844948941000,9.351941162109375,-8.593861186924576,-3.881071618261933,-2.69317993055582
1695804844958941000,9.36194091796875,-8.618717980283499,-3.7883088711515067,-2.745324543812871
1695804844968940000,9.37193994140625,-8.648416952976584,-3.7102310674756764,-2.758524801647663
1695804844978940000,9.38193994140625,-8.674711670184134,-3.6538235360771414,-2.7512428279459473
1695804844988939000,9.39193896484375,-8.687890885230898,-3.6220536023288963,-2.7516663140550253
1695804844998939100,9.401939208984375,-8.677541925173998,-3.6136627906024454,-2.7950124115675687
1695804845008938000,9.41193798828125,-8.640208512079715,-3.6284909419000146,-2.889851088169217
1695804845018936800,9.421936767578124,-8.581051389712094,-3.667382690352201,-3.014339929886162
1695804845028937200,9.431937255859374,-8.517429104629159,-3.732253806452453,-3.113528326129913
1695804845038935800,9.441935791015625,-8.474514676532149,-3.81930869731009,-3.125037562137842
1695804845048936000,9.45193603515625,-8.45446089954078,-3.9228608417212962,-3.050185734771192
1695804845058935000,9.46193505859375,-8.427603872275352,-4.048164799213409,-2.9594316971346735
1695804845068934000,9.471933837890624,-8.370908756107092,-4.2016579093575475,-2.905914918741584
1695804845078933500,9.48193359375,-8.272686282286047,-4.387527686971426,-2.912497804263234
1695804845088932600,9.4919326171875,-8.129421720689535,-4.601375020313263,-2.9850004381552337
1695804845098932500,9.501932373046875,-7.947413879200815,-4.827699265651405,-3.114854314036667
1695804845108931300,9.511931396484375,-7.744764816221594,-5.045504688969254,-3.2759567301407455
1695804845118931200,9.52193115234375,-7.543268430408835,-5.23911938162148,-3.43818551992625
1695804845128930300,9.531930419921874,-7.361845110809803,-5.3996770233243705,-3.5800980823919173
1695804845138929400,9.541929443359376,-7.217102877876162,-5.520107237300277,-3.689474110651016
1695804845148929300,9.55192919921875,-7.116563359284401,-5.598410958686471,-3.765993578968942
1695804845158928400,9.561928466796875,-7.053200017398596,-5.644183114302158,-3.8165360177263614
1695804845168928500,9.571928466796875,-7.007161904323101,-5.677568666553497,-3.851658769033849
1695804845178927400,9.58192724609375,-6.95509094082415,-5.7177416869878765,-3.886454480344057
1695804845188926500,9.591926513671876,-6.880084507417679,-5.767203929293156,-3.946414151266217
1695804845198926300,9.60192626953125,-6.773610922601819,-5.811165236094594,-4.0643507948607205
1695804845208925400,9.611925537109375,-6.636179304942488,-5.837527173319459,-4.249093906532228
1695804845218925600,9.621925537109375,-6.4709828975230455,-5.847990115144849,-4.483054345837235
1695804845228924400,9.63192431640625,-6.285102013993263,-5.852946276247501,-4.7340150197818875
1695804845238924500,9.641924560546874,-6.0994941021859646,-5.859415764522552,-4.963244338911771
1695804845248923400,9.65192333984375,-5.951228955823183,-5.8603679506808515,-5.139001303312182
1695804845258922200,9.661922119140625,-5.884575340220332,-5.8352112975925206,-5.243325016617774
1695804845268922400,9.67192236328125,-5.921533490261435,-5.762601403933763,-5.281879495939612
1695804845278921500,9.68192138671875,-6.059326926970481,-5.623230342644453,-5.275814496812224
1695804845288921300,9.69192138671875,-6.26906974760294,-5.410835546198487,-5.252810053321719
1695804845298920400,9.70192041015625,-6.511368099403381,-5.140839040133357,-5.229172572624683
1695804845308919600,9.71191943359375,-6.753566497960686,-4.838280865420401,-5.210639137068391
1695804845318919400,9.72191943359375,-6.96874420312345,-4.534360754704475,-5.200630953273177
1695804845328918500,9.73191845703125,-7.133481760859489,-4.267300594352186,-5.203265977951884
1695804845338918400,9.74191845703125,-7.2444637630105015,-4.065983949020505,-5.211133058065176
1695804845348917500,9.75191748046875,-7.329452076727152,-3.929597456499934,-5.196901119095087
1695804845358917400,9.76191748046875,-7.409897486317157,-3.8316482466623185,-5.155799293377995
1695804845368916500,9.77191650390625,-7.4836080346941944,-3.743339264090359,-5.114039296013116
1695804845378915300,9.781915283203125,-7.552970909255743,-3.6447947187080976,-5.083157251015305
1695804845388915200,9.791915283203124,-7.626671520760655,-3.527199435897171,-5.055999779498577
1695804845398914300,9.801914306640626,-7.711939235940575,-3.3955785503432154,-5.016614694571495
1695804845408914400,9.81191455078125,-7.803790421164035,-3.275355257116258,-4.954118198648095
1695804845418913300,9.821913330078125,-7.865269264477491,-3.216460000555217,-4.895131756672263
1695804845428912400,9.831912353515625,-7.849328768023848,-3.270988001817465,-4.884574414561689
1695804845438912500,9.84191259765625,-7.7665885254949325,-3.430131392808258,-4.90761480614841
1695804845448911400,9.851911376953124,-7.683580571940541,-3.5942230538561937,-4.920827338942885
1695804845458911500,9.861911376953126,-7.671051345235109,-3.6285143227756023,-4.91520482288599
1695804845468910300,9.871910400390625,-7.760195609587431,-3.4708857202619314,-4.889038408233225
1695804845478910500,9.881910400390625,-7.920392601284385,-3.1786540015131233,-4.830519291508198
1695804845488909600,9.89190966796875,-8.095130159509182,-2.852793277145922,-4.743503271356225
1695804845498908400,9.901908447265624,-8.248433300039173,-2.5641122366160154,-4.643173888383806
1695804845508908500,9.911908447265626,-8.35974263444841,-2.372813711951673,-4.544759983643889
1695804845518907400,9.921907470703125,-8.430068801084161,-2.326734974604845,-4.437412538602948
1695804845528907300,9.9319072265625,-8.476231417322158,-2.420225159206986,-4.297254418589175
1695804845538906400,9.94190625,-8.500455173474549,-2.6010613265678284,-4.140908549362421
1695804845548905500,9.951905517578124,-8.499239367944002,-2.8154940585821864,-4.000788715532422
1695804845558905300,9.9619052734375,-8.477945820024608,-3.025754181087017,-3.8909681583762166
1695804845568904400,9.971904541015626,-8.430559214949607,-3.2137527874231337,-3.8428964936465024
1695804845578904300,9.981904296875,-8.352940553218126,-3.3719971837475895,-3.876647956600785
1695804845588903400,9.9919033203125,-8.266464631292223,-3.4803891694054006,-3.9652030228883026
1695804845598903300,10.0019033203125,-8.198719128799437,-3.5157273170292376,-4.073212146708369
1695804845608902400,10.01190234375,-8.186445922681688,-3.4810543553158637,-4.1273166618615384
1695804845618901500,10.021901611328126,-8.254008469823003,-3.394315690800547,-4.064522936557233
1695804845628901400,10.0319013671875,-8.39731862412691,-3.2718463722124693,-3.8665813206166026
1695804845638900500,10.041900390625,-8.580171099746227,-3.126976713506877,-3.5739421901106834
1695804845648900600,10.051900634765625,-8.729546837699413,-2.998467237971723,-3.312793007367849
1695804845658899200,10.061899169921874,-8.781241369101405,-2.963741961549222,-3.2056846317797896
1695804845668898300,10.071898193359376,-8.718602249836922,-3.062207011954486,-3.2831764522612095
1695804845678898400,10.0818984375,-8.568048700276016,-3.241451233948767,-3.5002737273097035
1695804845688897300,10.091897216796875,-8.381251286423206,-3.437714687544107,-3.7559453554242848
1695804845698897400,10.1018974609375,-8.212981462907791,-3.6223984702438115,-3.949120195354521
1695804845708896500,10.111896484375,-8.099615195968747,-3.779576114119589,-4.03502328582853
1695804845718895400,10.121895263671876,-8.052196442189812,-3.9018984254524107,-4.013440984095633
1695804845728895500,10.1318955078125,-8.060022605770826,-3.9810397667065263,-3.918895445221662
1695804845738894300,10.141894287109375,-8.112432007443905,-3.9958898375749587,-3.7936388340026137
1695804845748894500,10.15189453125,-8.202532549607753,-3.925754809597134,-3.67114262740761
1695804845758893600,10.1618935546875,-8.315342351707816,-3.781346923184395,-3.567474747662246
1695804845768893400,10.1718935546875,-8.438868193611501,-3.5961931848853825,-3.4674610065102573
1695804845778892500,10.181892578125,-8.564550336766242,-3.405798915584385,-3.3495363456144926
1695804845788891400,10.191891357421875,-8.680908771258592,-3.235712982557714,-3.215954973642528
1695804845798891300,10.201891357421875,-8.775166433101893,-3.1065342294588683,-3.0848472983077166
1695804845808890400,10.211890380859375,-8.843070925548671,-3.0369325777053833,-2.9576202637985345
1695804845818890200,10.22189013671875,-8.88930602250099,-3.0230680107429624,-2.83049142896682
1695804845828889300,10.231889404296876,-8.919958350396156,-3.041298663960397,-2.712052973330021
1695804845838888400,10.241888427734375,-8.94193754249215,-3.0718314571291208,-2.6030729586511847
1695804845848888300,10.251888427734375,-8.958703968375922,-3.0927886127009985,-2.5192598261937498
1695804845858887400,10.261887451171875,-8.974246989944577,-3.089046503563225,-2.468008654645085
1695804845868887600,10.271887451171875,-8.999562048465013,-3.0662010500267147,-2.403471738935262
1695804845878886400,10.281886474609376,-9.038541475200653,-3.0166163503855463,-2.318443969991058
1695804845888886500,10.291886474609376,-9.094994014784692,-2.8985952433779834,-2.247134053014964
1695804845898885400,10.301885498046875,-9.167575851392746,-2.6948113311499355,-2.2054323617085814
1695804845908884500,10.311884521484375,-9.256351282432675,-2.4253087460815905,-2.1466772442705926
1695804845918884600,10.321884521484375,-9.415320193639397,-2.064367355982959,-1.8056892395287751
1695804845928883200,10.33188330078125,-9.601231472307443,-1.647311279952526,-1.128316486056894
1695804845938883300,10.34188330078125,-9.694178051552177,-1.3355993463166058,-0.6399006625592708
1695804845948882400,10.35188232421875,-9.700589087638258,-1.3241900635518133,-0.5616746460517869
1695804845958882300,10.36188232421875,-9.636664020216465,-1.683957733695954,-0.6851110926389694
1695804845968881400,10.37188134765625,-9.504562657669187,-2.214507794698328,-0.9641698068860918
1695804845978880500,10.381880615234374,-9.342932418298721,-2.6423025607556103,-1.3777664631776512
1695804845988880400,10.39188037109375,-9.206156049677729,-2.9023674553930756,-1.7301276564575732
1695804845998879500,10.40187939453125,-9.128115947663783,-3.0186455181255933,-1.9327856333956122
1695804846008879400,10.41187939453125,-9.117859342065453,-2.987234188556671,-2.0276739943578836
1695804846018878500,10.42187841796875,-9.165361682474613,-2.840551050688326,-2.0243014491848648
1695804846028877600,10.431877685546874,-9.24362214924097,-2.636296306078136,-1.943136639279127
1695804846038877400,10.44187744140625,-9.322349064475297,-2.436817543698102,-1.823763971532136
1695804846048876500,10.45187646484375,-9.381135599964857,-2.2914770526103676,-1.7069878961496054
1695804846058876400,10.46187646484375,-9.412527348050475,-2.220143170236796,-1.626555492171645
1695804846068875300,10.471875244140625,-9.41842985009253,-2.217680871776491,-1.5954486985072494
1695804846078875600,10.481875732421875,-9.404640394192933,-2.2614982400625943,-1.615163014411181
1695804846088874500,10.49187451171875,-9.37935748437643,-2.3271986465938386,-1.66798698823452
1695804846098873600,10.50187353515625,-9.354561481294036,-2.3960269758872688,-1.709275130303949
1695804846108873700,10.511873779296875,-9.338079717570542,-2.4494838407866655,-1.7235650830715894
1695804846118872600,10.52187255859375,-9.32959655138552,-2.481666885380447,-1.723467906307429
1695804846128872700,10.531872802734375,-9.325022667598724,-2.5034058389797806,-1.7167675318859517
1695804846138871600,10.54187158203125,-9.32027401176691,-2.5257518185615537,-1.709809529441595
1695804846148870700,10.55187060546875,-9.314628114834427,-2.550763510221243,-1.703434003060311
1695804846158870800,10.561870849609376,-9.310792482194303,-2.5764056087389586,-1.6857240127161144
1695804846168869600,10.57186962890625,-9.311749929049611,-2.597913676191866,-1.6469810250848531
1695804846178869800,10.581869873046875,-9.316919440641998,-2.6089380512923,-1.5996385514125226
1695804846188868600,10.59186865234375,-9.322835386687517,-2.61375889557749,-1.5567226620107888
1695804846198867500,10.601867431640626,-9.323339244556426,-2.6294462940528986,-1.527004984617233
1695804846208867600,10.61186767578125,-9.311233796221018,-2.6774530768528577,-1.5174169259302317
1695804846218866700,10.62186669921875,-9.286235548564791,-2.762479676753282,-1.5181955090872943
1695804846228866600,10.631866455078125,-9.253295401993393,-2.8645804533123966,-1.5300618879698216
1695804846238865700,10.64186572265625,-9.220168792939186,-2.9591593099340794,-1.549916781388223
1695804846248865500,10.651865478515624,-9.196984316706656,-3.026897213642299,-1.5568427812591195
1695804846258864600,10.66186474609375,-9.190342978996037,-3.056129153345525,-1.538848274885118
1695804846268863700,10.67186376953125,-9.20029797129929,-3.045404053452611,-1.500138020479679
1695804846278863600,10.681863525390625,-9.219397808566688,-3.0090070444256067,-1.4556658415466546
1695804846288862700,10.69186279296875,-9.237043939894438,-2.9704665936291215,-1.4225810258075593
1695804846298862600,10.701862548828124,-9.244477304765581,-2.9481372729212043,-1.4207435812473297
1695804846308861700,10.71186181640625,-9.238727362936734,-2.949481381006539,-1.4549438108824193
1695804846318860500,10.721860595703125,-9.224646230614185,-2.9673876245751973,-1.5069490156687795
1695804846328860400,10.7318603515625,-9.210766758343578,-2.983718581651151,-1.5587122283928094
1695804846338859500,10.741859619140625,-9.204613496410847,-2.984992547109723,-1.5922595470771193
1695804846348859600,10.751859619140625,-9.21036986798048,-2.964476997825503,-1.5972925728082656
1695804846358858500,10.7618583984375,-9.226467600822447,-2.921838464060426,-1.582888492141664
1695804846368858600,10.771858642578126,-9.248889275988937,-2.8652599600091575,-1.5552213175371288
1695804846378857700,10.781857666015625,-9.273060425171256,-2.803652229619026,-1.523244609170407
1695804846388856600,10.791856689453125,-9.29498525673151,-2.7446093812808394,-1.4969130670838058
1695804846398856700,10.801856689453125,-9.312600408399105,-2.6940581746950745,-1.4791577762931585
1695804846408855600,10.81185546875,-9.325946796706319,-2.6520190681278706,-1.4710196241535245
1695804846418855700,10.821855712890626,-9.338134662628173,-2.611992762687802,-1.4653053381599486
1695804846428854800,10.831854736328125,-9.353313527059555,-2.56630360918045,-1.449138339474052
1695804846438853400,10.841853271484375,-9.372808501124382,-2.5142475509896873,-1.4140044822506606
1695804846448853800,10.851853759765625,-9.395506070622801,-2.457665832068026,-1.3618828114777803
1695804846458852600,10.8618525390625,-9.41886005820334,-2.3997910045959054,-1.3024812128297985
1695804846468852500,10.8718525390625,-9.439638057816028,-2.347023583265394,-1.2470374118968843
1695804846478851600,10.8818515625,-9.455075280922651,-2.3049705943033096,-1.2079081283617763
1695804846488851500,10.8918515625,-9.464081594198941,-2.2760896599948404,-1.1920406240791082
1695804846498850600,10.9018505859375,-9.46846901550293,-2.25665299198851,-1.1941485561437903
1695804846508849700,10.911849609375,-9.471385195210576,-2.2400174990080295,-1.2023194415092469
1695804846518849500,10.921849609375,-9.474859008800983,-2.2226289957031606,-1.2072070674203335
1695804846528848600,10.9318486328125,-9.478975211948155,-2.2061253124088047,-1.2051675974819809
1695804846538848500,10.9418486328125,-9.483355034467577,-2.192523195774853,-1.1954937602076678
1695804846548847600,10.95184765625,-9.48786052919328,-2.1815182560272515,-1.1797742130283266
1695804846558846700,10.9618466796875,-9.492903199535608,-2.1712280404202637,-1.1579919317439198
1695804846568846600,10.9718466796875,-9.498872337073086,-2.160133961084485,-1.1294400101941078
1695804846578845400,10.981845458984376,-9.504355152398347,-2.1489614096850156,-1.1043460470784454
1695804846588845800,10.991845703125,-9.508432192578912,-2.1385756247490644,-1.0893076870962977
1695804846598844400,11.001844482421875,-9.511828264757991,-2.1275902664847672,-1.0811396512750535
1695804846608844500,11.011844482421875,-9.515954989299178,-2.1125899734906852,-1.07421803531833
1695804846618843600,11.02184375,-9.521113394975663,-2.092372384239733,-1.0680651387117803
1695804846628842500,11.031842529296876,-9.526132099920511,-2.0721711616016925,-1.0626856376305223
1695804846638842600,11.041842529296876,-9.529884145930408,-2.057523481437564,-1.057489749487862
1695804846648841700,11.051841796875,-9.53180313129425,-2.049891817515343,-1.055017002698779
1695804846658841600,11.061841552734375,-9.532042200747131,-2.0486799575075505,-1.0552105525095015
1695804846668840700,11.0718408203125,-9.530990645867586,-2.053482535483688,-1.0553707115072757
1695804846678839800,11.08183984375,-9.528860648101567,-2.063456524748355,-1.0551504198201
1695804846688839700,11.091839599609376,-9.52600292058289,-2.077290258181095,-1.0538101111270486
1695804846698838800,11.1018388671875,-9.52258872822523,-2.093663885354996,-1.052265585098788
1695804846708838700,11.111838623046875,-9.518595274674892,-2.111684402953088,-1.0523887000218033
1695804846718837500,11.12183740234375,-9.51382732962072,-2.130884777985513,-1.0567892730683088
1695804846728837600,11.131837646484374,-9.5084327771008,-2.150180137825012,-1.0662180495403706
1695804846738836500,11.14183642578125,-9.503561371672152,-2.1654390817552804,-1.0786956191238015
1695804846748835600,11.151835693359375,-9.500606028997897,-2.172840297922492,-1.0897883102200925
1695804846758835500,11.16183544921875,-9.499773085305094,-2.173443670643121,-1.0958281018409877
1695804846768834600,11.17183447265625,-9.500476265138387,-2.1705520408548415,-1.095463214051351
1695804846778834700,11.181834716796875,-9.502082531291245,-2.1666747610300776,-1.089191294175014
1695804846788833500,11.19183349609375,-9.503969952473044,-2.1639628717228767,-1.0780565905679016
1695804846798832600,11.20183251953125,-9.505389756143092,-2.1639416828043756,-1.0655064672049135
1695804846808832800,11.211832763671875,-9.505630579161643,-2.1680743986949325,-1.0549030939955264
1695804846818831600,11.22183154296875,-9.504362751182914,-2.1762154734440147,-1.049553330465406
1695804846828831700,11.231831787109375,-9.501747015726565,-2.1859845877863466,-1.0529259487036615
1695804846838830600,11.24183056640625,-9.498294829446078,-2.194703462423384,-1.0658606144048273
1695804846848830700,11.251830810546876,-9.495328965377807,-2.200313411259651,-1.0806194998584686
1695804846858829600,11.26182958984375,-9.494119589588045,-2.2008140542581676,-1.0901788439076394
1695804846868828400,11.271828369140625,-9.495272851276397,-2.19546173344478,-1.0909295161444694
1695804846878828500,11.28182861328125,-9.49832697815001,-2.186369057059288,-1.082571437643841
1695804846888827600,11.29182763671875,-9.501928217512368,-2.1767580558881163,-1.0702685670401901
1695804846898827500,11.30182763671875,-9.50522784357965,-2.168767349395156,-1.0571058647368103
1695804846908826600,11.31182666015625,-9.50821124330461,-2.162403659582138,-1.0432242735743522
1695804846918825700,11.32182568359375,-9.51061713540256,-2.157797042569518,-1.0307562024716288
1695804846928825600,11.33182568359375,-9.512003036803007,-2.1555805355638262,-1.0225723114941268
1695804846938824700,11.34182470703125,-9.512043368813394,-2.156176163369417,-1.0209425914004444
1695804846948824600,11.351824462890624,-9.510755667090415,-2.1594133917249736,-1.0260798081584275
1695804846958823700,11.36182373046875,-9.508819730591773,-2.1642752986729143,-1.0337515118300915
1695804846968823600,11.371823486328125,-9.507004790124297,-2.1699521752655504,-1.0385334123443812
1695804846978822700,11.38182275390625,-9.505951481679082,-2.1742611245058474,-1.0391649882461875
1695804846988821500,11.391821533203125,-9.505586155498028,-2.1765327226996423,-1.0377486186422407
1695804846998821400,11.4018212890625,-9.505328965866566,-2.178670611511171,-1.035613140983507
1695804847008820500,11.411820556640626,-9.504553305318952,-2.1823538300685583,-1.0349790077984333
1695804847018820600,11.421820556640625,-9.50302536509931,-2.1878088806040585,-1.0374912828803062
1695804847028819500,11.4318193359375,-9.500816456878185,-2.194611692486703,-1.0433351866029201
1695804847038818600,11.441818603515625,-9.497724920603632,-2.203526381956786,-1.0526508580893277
1695804847048818700,11.451818603515624,-9.494495437163113,-2.213264662769437,-1.0613190985176713
1695804847058817500,11.461817626953126,-9.492070840364693,-2.220767731875926,-1.067315416323021
1695804847068817700,11.471817626953126,-9.490724686452745,-2.2245047264471647,-1.071498547226563
1695804847078816800,11.481816650390625,-9.489992865046858,-2.225957117212564,-1.074959428270161
1695804847088815600,11.491815673828125,-9.48963455312848,-2.2256839993596076,-1.0786815175332127
1695804847098815700,11.501815673828125,-9.489844981008767,-2.223018287281692,-1.0823182666003703
1695804847108814600,11.511814697265624,-9.490983629649877,-2.217543509132415,-1.0835684127919376
1695804847118814700,11.521814697265626,-9.492551901879906,-2.211156584574282,-1.082878896157816
1695804847128813600,11.5318134765625,-9.493969951984285,-2.206578316873312,-1.0797855332523583
1695804847138813700,11.541813720703125,-9.495197447952627,-2.204033746957034,-1.0741703967843204
1695804847148812500,11.5518125,-9.496130929410457,-2.2032607167579235,-1.0674833933010697
1695804847158811600,11.561811767578124,-9.496865088903903,-2.203759460060298,-1.0598987103257327
1695804847168811500,11.5718115234375,-9.49728185301125,-2.2054165796175598,-1.0526937473829836
1695804847178810600,11.581810546875,-9.497379468166828,-2.2072525628730655,-1.0479504983786494
1695804847188810500,11.591810546875,-9.497360763466357,-2.208338604544103,-1.0458337984856219
1695804847198809600,11.6018095703125,-9.497036353817581,-2.2093282001033425,-1.0466882233578712
1695804847208808700,11.61180859375,-9.496208670821785,-2.2113605827137826,-1.049899513554573
1695804847218808600,11.62180859375,-9.495074698355793,-2.215433969632536,-1.0515687619410454
1695804847228807700,11.6318076171875,-9.493814469161629,-2.221694052940607,-1.0497367972735314
1695804847238807600,11.6418076171875,-9.493020688435434,-2.22762841142565,-1.0443260242711752
1695804847248806700,11.651806640625,-9.492802077248692,-2.231830539290607,-1.0373194334447384
1695804847258806800,11.661806884765625,-9.492587557715177,-2.2350459942057728,-1.0323452252287417
1695804847268805400,11.671805419921874,-9.491887885013222,-2.2393135885223745,-1.029523884197697
1695804847278804500,11.681804443359376,-9.490457559949158,-2.245558328130841,-1.0291107002869249
1695804847288804600,11.6918046875,-9.488381922718881,-2.253327354697138,-1.0312678052555768
1695804847298803500,11.701803466796875,-9.486271798697114,-2.2612794827453793,-1.0332717654891312
1695804847308803600,11.711803466796875,-9.484801726144552,-2.2677064470529555,-1.0326827866200357
1695804847318802700,11.721802734375,-9.484541029381752,-2.27076130457893,-1.0283510410260408
1695804847328802600,11.731802490234376,-9.485938036698103,-2.2698015196360646,-1.0175270838685333
1695804847338801700,11.7418017578125,-9.488580660161375,-2.2657740176856516,-1.0017441891293972
1695804847348800800,11.75180078125,-9.49142377463281,-2.2603744967296717,-0.9868986483056098
1695804847358800600,11.761800537109375,-9.493602872237563,-2.255763349672407,-0.9764346105016768
1695804847368799700,11.7717998046875,-9.494493683597446,-2.253428184723109,-0.9731569770704954
1695804847378799600,11.781799560546874,-9.494172781080007,-2.2539777814298865,-0.9750140761792659
1695804847388798700,11.791798828125,-9.493442128717898,-2.2558557041309775,-0.9777784993913025
1695804847398797600,11.801797607421875,-9.49301016704142,-2.258078202486038,-0.9768458216510713
1695804847408797400,11.81179736328125,-9.493302427986263,-2.2604585217513145,-0.9684622433830052
1695804847418796500,11.821796630859374,-9.493958846068383,-2.262946393044293,-0.9561392067741602
1695804847428796400,11.83179638671875,-9.494072243314982,-2.2662720303356645,-0.9470922692265361
1695804847438795500,11.84179541015625,-9.493052837139368,-2.271197211778164,-0.9455153752986342
1695804847448794600,11.851794677734375,-9.490973692777752,-2.277222025025636,-0.9518761425022035
1695804847458794500,11.86179443359375,-9.488979304090142,-2.280471528340876,-0.9639019497301429
1695804847468793600,11.871793701171875,-9.488239299377799,-2.2781826867513355,-0.976513009500131
1695804847478793700,11.881793701171874,-9.489651504263282,-2.2702014787390827,-0.9813659294240176
1695804847488792600,11.89179248046875,-9.493462002462149,-2.257851115731895,-0.9729735833276063
1695804847498792700,11.901792724609376,-9.49853214533329,-2.2445292773440477,-0.9541302781045436
1695804847508791800,11.911791748046875,-9.503299505865574,-2.2352318721666933,-0.9281280410375445
1695804847518790700,11.921790771484375,-9.506358893436193,-2.2335621853888035,-0.9004041678097099
1695804847528790800,11.931790771484375,-9.506777995631099,-2.2397519799396393,-0.880378959325701
1695804847538789600,11.94178955078125,-9.504207268360256,-2.2523436043567955,-0.8760006711762398
1695804847548789500,11.95178955078125,-9.498784074267745,-2.270234065834433,-0.8885482372559607
1695804847558788600,11.96178857421875,-9.491823587605356,-2.2909406076461076,-0.9095403180107474
1695804847568787500,11.971787353515625,-9.4856603888005,-2.309415444882959,-0.9269474529508501
1695804847578787600,11.98178759765625,-9.482568852525949,-2.319616520901769,-0.9330871978148817
1695804847588786700,11.99178662109375,-9.48314285302162,-2.3199201800234612,-0.9264756707206367
1695804847598786600,12.00178662109375,-9.486147295534611,-2.314398932383954,-0.9093692722927779
1695804847608785700,12.01178564453125,-9.490016830444336,-2.3071954307459293,-0.8870259230595081
1695804847618785500,12.02178564453125,-9.49392494379878,-2.299424796744436,-0.8651092017404735
1695804847628784600,12.03178466796875,-9.497284775620699,-2.291455425300449,-0.8492313952594995
1695804847638783700,12.04178369140625,-9.499511804020404,-2.2845837859652933,-0.8428166328463703
1695804847648783600,12.05178369140625,-9.500507244798541,-2.2801494567796587,-0.8436044222231954
1695804847658782700,12.06178271484375,-9.501130929654837,-2.276753969122469,-0.8457431878175586
1695804847668782600,12.071782470703125,-9.502494034701586,-2.2717945931494237,-0.8437646542862057
1695804847678781400,12.081781494140625,-9.504991112214327,-2.26491403985545,-0.8340834374230355
1695804847688780500,12.091780517578124,-9.508441544929147,-2.2571071654967962,-0.8157132296044379
1695804847698780400,12.101780517578124,-9.51248000666499,-2.2485784066043792,-0.7918370447807014
1695804847708779500,12.111779541015625,-9.51692003493905,-2.2396001503787932,-0.7634160561341792
1695804847718779600,12.121779541015625,-9.521849892556666,-2.230042632960528,-0.7291524789392948
1695804847728778500,12.131778564453125,-9.527653025877475,-2.2177404930092393,-0.6898095526535064
1695804847738777600,12.141777587890624,-9.534372104999422,-2.201851726742834,-0.6465124819144606
1695804847748777700,12.15177783203125,-9.540912904945015,-2.1862524449422955,-0.6013849078126251
1695804847758776600,12.161776611328126,-9.54664823372662,-2.173649568478763,-0.5542037621818483
1695804847768776700,12.171776611328125,-9.5516821362406,-2.164690016953647,-0.4998686531431973
1695804847778775800,12.18177587890625,-9.556189969053865,-2.1590683776795863,-0.43363351868074385
1695804847788775700,12.191775634765625,-9.559809913116693,-2.15680452440083,-0.35862449145838615
1695804847798774800,12.20177490234375,-9.561704348561166,-2.158916109727323,-0.2885798634440638
1695804847808773600,12.211773681640626,-9.56117710981667,-2.1676203713171183,-0.23601256779553367
1695804847818773500,12.2217734375,-9.558314706122875,-2.1833891644656656,-0.20450232616309075
1695804847828772600,12.231772705078125,-9.5547029453665,-2.2005308534026145,-0.1889425726553425
1695804847838772500,12.2417724609375,-9.552726676857471,-2.2098075080528856,-0.1804157317253761
1695804847848771600,12.251771484375,-9.553722117635607,-2.2064392006635662,-0.1685487135220319
1695804847858770700,12.261770751953126,-9.557695697441696,-2.1908517554312943,-0.14492825702503323
1695804847868770600,12.2717705078125,-9.563723287168145,-2.166537982907891,-0.10814630380105227
1695804847878769700,12.281769775390625,-9.570550502839684,-2.1379666990704833,-0.0636418756993953
1695804847888769500,12.29176953125,-9.576571078303456,-2.1116646753393113,-0.02323543010163121
1695804847898768600,12.3017685546875,-9.580334814751147,-2.0946508505657313,0.0017661794116938835
1695804847908768800,12.311768798828124,-9.58124549985528,-2.0904652354441584,0.008451088263036217
1695804847918767600,12.321767578125,-9.57969827041328,-2.097560162141174,0.0022666575853123503
1695804847928766700,12.3317666015625,-9.577031681552528,-2.1096910371787847,-0.0068727113391680176
1695804847938766600,12.3417666015625,-9.57458721100986,-2.120732217283547,-0.012645612776849884
1695804847948765400,12.351765380859375,-9.572789806199074,-2.128828868369013,-0.012928618411225033
1695804847958765600,12.361765625,-9.571492167603969,-2.1346805170066654,-0.007666769484931137
1695804847968764400,12.371764404296876,-9.570500233957171,-2.1391382270678876,0.00011601317292420389
1695804847978763500,12.381763427734375,-9.569857844400405,-2.1419971236303446,0.007651244263880653
1695804847988763600,12.391763671875,-9.56968073426783,-2.1427549562603234,0.013810709891823352
1695804847998762500,12.401762451171875,-9.56968131878972,-2.1427432658225296,0.015404953388392458
1695804848008762600,12.4117626953125,-9.569508884832262,-2.1435310551993547,0.012636817549041005
1695804848018761700,12.42176171875,-9.569391395932435,-2.1440756834700703,0.00880619273170887
1695804848028761600,12.43176171875,-9.569774257770181,-2.1423750170320273,0.005798654079335392
1695804848038760700,12.4417607421875,-9.570645195385813,-2.138481516724825,0.006043217695486964
1695804848048759800,12.451759765625,-9.571627192160486,-2.1340615083254875,0.010744128820369951
1695804848058759700,12.461759765625,-9.572344985041022,-2.1307906699612738,0.0181632722282724
1695804848068758800,12.4717587890625,-9.572711480265855,-2.129045141468197,0.027234664938785135
1695804848078759000,12.481759033203126,-9.572808510899543,-2.1284633960574864,0.0369909837316256
1695804848088757800,12.4917578125,-9.572949965196848,-2.1276624549381435,0.04550898376801051
1695804848098756900,12.5017568359375,-9.573360884085297,-2.1256492154195903,0.05255246340557933
1695804848108756700,12.5117568359375,-9.573724456700683,-2.123945918633044,0.05514100032774731
1695804848118755800,12.521755859375,-9.573584755969048,-2.1246635653831065,0.05161422814081888
1695804848128755700,12.531755615234376,-9.573033551827072,-2.12726278809607,0.04648644593146164
1695804848138754800,12.5417548828125,-9.572545476049184,-2.129489085843414,0.04504834855289664
1695804848148755000,12.5517548828125,-9.57242389549613,-2.129909941603988,0.050638487576995975
1695804848158753800,12.56175390625,-9.572471826291084,-2.1292973626635967,0.0652760756053729
1695804848168753000,12.5717529296875,-9.572058569315075,-2.130422128909826,0.08588201115336269
1695804848178753000,12.5817529296875,-9.570514262482524,-2.1363984268404543,0.10695544091551563
1695804848188752000,12.591751953125,-9.567579378074408,-2.1486352464705702,0.12317345740259625
