time,seconds_elapsed,z,y,x
1695804835619486700,0.02248681640625,0.3955422639846802,0.2796226143836975,0.36150890588760376
1695804835629486800,0.03248681640625,0.40703698992729187,0.2643570005893707,0.42675623297691345
1695804835639486000,0.04248583984375,0.41040560603141785,0.29416710138320923,0.4644993245601654
1695804835649484800,0.05248486328125,0.3874216079711914,0.31241095066070557,0.4408848285675049
1695804835659485000,0.06248486328125,0.3447346091270447,0.3069666624069214,0.36736613512039185
1695804835669483800,0.07248388671875,0.3369653522968292,0.30442091822624207,0.27850061655044556
1695804835679484000,0.08248388671875,0.35050272941589355,0.32016444206237793,0.18145182728767395
1695804835689483000,0.09248291015625,0.3566020727157593,0.3237636983394623,0.09436801820993423
1695804835699481900,0.10248193359375,0.35652750730514526,0.3183915615081787,0.04053701087832451
1695804835709482000,0.11248193359375,0.3479919135570526,0.2651289403438568,0.01051853597164154
1695804835719480800,0.122480712890625,0.3296182453632355,0.18969514966011047,-0.009447182528674603
1695804835729481000,0.13248095703125,0.30217650532722473,0.13062748312950134,-0.027662694454193115
1695804835739479800,0.142479736328125,0.24326711893081665,0.12414401769638062,-0.03393097594380379
1695804835749479700,0.152479736328125,0.1759156584739685,0.12611454725265503,-0.01732671447098255
1695804835759478800,0.162478759765625,0.12986932694911957,0.12590843439102173,0.015605669468641281
1695804835769478000,0.172477783203125,0.11901148408651352,0.11193032562732697,0.074140764772892
1695804835779477800,0.182477783203125,0.12819993495941162,0.06428824365139008,0.12376637011766434
1695804835789476900,0.192476806640625,0.14513057470321655,-0.007031353656202555,0.15394370257854462
1695804835799476700,0.202476806640625,0.16705423593521118,-0.06290793418884277,0.15519006550312042
1695804835809475800,0.212475830078125,0.17308901250362396,-0.10036660730838776,0.13213306665420532
1695804835819475000,0.222474853515625,0.1731950044631958,-0.11958690732717514,0.09727973490953445
1695804835829474800,0.232474853515625,0.17168253660202026,-0.1178712323307991,0.05371406301856041
1695804835839474000,0.242473876953125,0.16342326998710632,-0.08100269734859467,0.0005395275074988604
1695804835849474000,0.25247412109375,0.1550425887107849,0.01610698737204075,-0.0124623142182827
1695804835859472600,0.26247265625,0.13839037716388702,0.10139632225036621,-0.025510471314191818
1695804835869471700,0.2724716796875,0.10548540204763412,0.14587987959384918,-0.05037890747189522
1695804835879471900,0.282471923828125,0.058651845902204514,0.1481427699327469,-0.06573762744665146
1695804835889470700,0.292470703125,0.017436563968658447,0.11228211224079132,-0.07533584535121918
1695804835899470800,0.302470947265625,-0.013627877458930016,0.04872124642133713,-0.09359048306941986
1695804835909470000,0.312469970703125,-0.02511780522763729,0.025317996740341187,-0.11510898172855377
1695804835919468800,0.32246875,-0.014314426109194756,0.019581813365221024,-0.1384289413690567
1695804835929469000,0.332468994140625,0.01555619202554226,0.002275903709232807,-0.13272413611412048
1695804835939468000,0.342468017578125,0.037914227694272995,-0.034645095467567444,-0.11733798682689667
1695804835949468000,0.352468017578125,0.03879750519990921,-0.07117410004138947,-0.09172400832176208
1695804835959467000,0.362467041015625,0.00817008875310421,-0.06091241165995598,-0.06087581068277359
1695804835969467000,0.372466796875,-0.02245909348130226,0.0028443261981010437,-0.005915456917136908
1695804835979466000,0.382466064453125,-0.04463177174329758,0.07313179969787598,0.03955615311861038
1695804835989464800,0.39246484375,-0.059609703719615936,0.08431874960660934,0.04482460021972656
1695804835999464700,0.402464599609375,-0.05639687180519104,0.055261000990867615,0.031051000580191612
1695804836009463800,0.4124638671875,-0.03697753697633743,0.03591369092464447,0.006482576485723257
1695804836019463700,0.422463623046875,-0.01662752591073513,-0.0063706496730446815,-0.029976630583405495
1695804836029462800,0.432462890625,-0.01704307831823826,-0.06459759920835495,-0.057715751230716705
1695804836039462000,0.4424619140625,-0.018971741199493408,-0.08784300088882446,-0.051993951201438904
1695804836049461800,0.452461669921875,-0.0154638746753335,-0.1026194840669632,-0.029653573408722878
1695804836059460600,0.462460693359375,-0.01789560541510582,-0.10317102074623108,-0.019931970164179802
1695804836069460700,0.472460693359375,-0.014279033988714218,-0.08814067393541336,-0.023921119049191475
1695804836079459600,0.48245947265625,-0.012510429136455059,-0.08078742027282715,-0.030260775238275528
1695804836089459700,0.492459716796875,-0.011581533588469028,-0.04696588218212128,-0.010857363231480122
1695804836099458800,0.502458740234375,-0.011912563815712929,-0.02712160535156727,0.005296838935464621
1695804836109457700,0.512457763671875,-0.017031410709023476,-0.051161348819732666,-0.001621140050701797
1695804836119457800,0.522457763671875,-0.019905759021639824,-0.09601324051618576,-0.021505633369088173
1695804836129456600,0.53245654296875,-0.007373983506113291,-0.14295880496501923,-0.049240194261074066
1695804836139456800,0.542456787109375,0.026541639119386673,-0.16318179666996002,-0.07629631459712982
1695804836149456000,0.552455810546875,0.06503329426050186,-0.14762115478515625,-0.10228469222784042
1695804836159454700,0.562454833984375,0.09953854233026505,-0.10779624432325363,-0.1271170824766159
1695804836169454800,0.572454833984375,0.08479389548301697,-0.07928144931793213,-0.17257146537303925
1695804836179454000,0.582453857421875,-0.017439262941479683,-0.09989111125469208,-0.2645304203033447
1695804836189453800,0.592453857421875,-0.06431852281093597,-0.02455894835293293,-0.29448655247688293
1695804836199452700,0.60245263671875,-0.003796854056417942,0.07844599336385727,-0.29417017102241516
1695804836209451800,0.61245166015625,0.06049676612019539,0.1265198290348053,-0.29128608107566833
1695804836219451600,0.62245166015625,0.07958205044269562,0.120509073138237,-0.2168065309524536
1695804836229450800,0.63245068359375,0.10491685569286346,0.05267548933625221,-0.07879992574453354
1695804836239450600,0.64245068359375,0.16830646991729736,-0.04155940189957619,0.09233986586332321
1695804836249449700,0.65244970703125,0.27041706442832947,-0.12461943179368973,0.23976372182369232
1695804836259449600,0.66244970703125,0.36814388632774353,-0.15274587273597717,0.32209402322769165
1695804836269448700,0.67244873046875,0.4609961211681366,-0.13280586898326874,0.3333221673965454
1695804836279447800,0.68244775390625,0.5442118644714355,-0.07571781426668167,0.29048413038253784
1695804836289447700,0.69244775390625,0.5975532531738281,-0.03201957792043686,0.22693395614624023
1695804836299446800,0.70244677734375,0.5989972352981567,0.007693478837609291,0.16387535631656647
1695804836309447000,0.712447021484375,0.5520437359809875,0.023446643725037575,0.09338198602199554
1695804836319445800,0.72244580078125,0.4594498574733734,0.02774338610470295,0.0024102702736854553
1695804836329444600,0.732444580078125,0.3727421164512634,0.030323190614581108,-0.08907117694616318
1695804836339444700,0.74244482421875,0.3024487793445587,0.038723863661289215,-0.1782391369342804
1695804836349443600,0.752443603515625,0.26046261191368103,0.05533608794212341,-0.23801366984844208
1695804836359443700,0.762443603515625,0.23636072874069214,0.05683545023202896,-0.27025362849235535
1695804836369442800,0.77244287109375,0.20985616743564606,0.03134483844041824,-0.2733648717403412
1695804836379442700,0.782442626953125,0.19005663692951202,0.00843446422368288,-0.2504640817642212
1695804836389441800,0.79244189453125,0.17823372781276703,0.012891866266727448,-0.1952914595603943
1695804836399440600,0.802440673828125,0.1671065092086792,0.019598504528403282,-0.12114612013101578
1695804836409440800,0.812440673828125,0.15906310081481934,0.008390367031097412,-0.06111965700984001
1695804836419439900,0.82243994140625,0.14582505822181702,-0.022119073197245598,-0.030274661257863045
1695804836429439700,0.832439697265625,0.12978680431842804,-0.029305852949619293,-0.017793718725442886
1695804836439438800,0.84243896484375,0.1273026019334793,-0.009373157285153866,-0.027247142046689987
1695804836449438000,0.85243798828125,0.12429289519786835,0.009456181898713112,-0.05457589775323868
1695804836459437800,0.862437744140625,0.11383865773677826,0.034799087792634964,-0.09085481613874435
1695804836469436700,0.872436767578125,0.09688463062047958,0.06628632545471191,-0.12795457243919373
1695804836479436500,0.8824365234375,0.0830596312880516,0.0888608768582344,-0.15132273733615875
1695804836489435600,0.892435546875,0.06945431232452393,0.11348044872283936,-0.16880570352077484
1695804836499434800,0.902434814453125,0.05737048387527466,0.12388169765472412,-0.1614423394203186
1695804836509434600,0.9124345703125,0.041161514818668365,0.1323700249195099,-0.1176559254527092
1695804836519433700,0.922433837890625,0.012789263390004635,0.14871065318584442,-0.038390401750802994
1695804836529433600,0.93243359375,-0.06002639979124069,0.17989350855350494,0.07975492626428604
1695804836539432700,0.9424326171875,-0.1556708961725235,0.1913727968931198,0.23724442720413208
1695804836549432800,0.952432861328125,-0.2126127928495407,0.18694588541984558,0.4048197567462921
1695804836559431700,0.962431640625,-0.20806996524333954,0.16268129646778107,0.5335761308670044
1695804836569430800,0.9724306640625,-0.1719576120376587,0.17478495836257935,0.6266217827796936
1695804836579431000,0.982430908203125,-0.13026954233646393,0.1904486119747162,0.661418080329895
1695804836589429800,0.9924296875,-0.09021645784378052,0.20924431085586548,0.6600450277328491
1695804836599430000,1.002429931640625,-0.03909201920032501,0.23816171288490295,0.6361359357833862
1695804836609428700,1.0124287109375,0.02381681464612484,0.2568086087703705,0.5957117676734924
1695804836619427600,1.022427490234375,0.06659197807312012,0.2473173588514328,0.5477581024169922
1695804836629427700,1.032427734375,0.08830276131629944,0.2113669514656067,0.5046607851982117
1695804836639426800,1.0424267578125,0.09549888968467712,0.17186588048934937,0.4586451053619385
1695804836649426700,1.0524267578125,0.08283146470785141,0.13235457241535187,0.4126465618610382
1695804836659425800,1.06242578125,0.058622267097234726,0.1101193055510521,0.372880220413208
1695804836669425000,1.0724248046875,0.026871943846344948,0.10201643407344818,0.35837823152542114
1695804836679424800,1.0824248046875,-0.013035260140895844,0.0877794399857521,0.37237900495529175
1695804836689424000,1.092423828125,-0.05846646800637245,0.06352075934410095,0.40783002972602844
1695804836699423700,1.102423828125,-0.09918539971113205,0.03611336648464203,0.4495287239551544
1695804836709422800,1.1124228515625,-0.1130886971950531,0.013008682988584042,0.5017275810241699
1695804836719422700,1.122422607421875,-0.08429912477731705,-0.0237962007522583,0.5651252269744873
1695804836729421800,1.132421875,-0.04791776090860367,-0.10133648663759232,0.6392685174942017
1695804836739420700,1.142420654296875,-0.03749361261725426,-0.21698850393295288,0.7307574152946472
1695804836749420500,1.152420654296875,-0.05663643777370453,-0.3608505129814148,0.8521952033042908
1695804836759419600,1.162419677734375,-0.0977761521935463,-0.49688079953193665,0.9947376847267151
1695804836769419800,1.172419677734375,-0.14360719919204712,-0.6078754663467407,1.1266744136810303
1695804836779418600,1.182418701171875,-0.17585808038711548,-0.6480439305305481,1.208718180656433
1695804836789417700,1.192417724609375,-0.1694045215845108,-0.6302372813224792,1.2217381000518799
1695804836799417900,1.20241796875,-0.13067257404327393,-0.5564780831336975,1.1659212112426758
1695804836809416700,1.212416748046875,-0.09970517456531525,-0.4070872664451599,1.0337867736816406
1695804836819416800,1.222416748046875,-0.09835628420114517,-0.20227475464344025,0.8403875231742859
1695804836829415700,1.232415771484375,-0.13655216991901398,0.010371716693043709,0.6070291996002197
1695804836839415800,1.242415771484375,-0.1996176838874817,0.19748061895370483,0.3645574450492859
1695804836849415000,1.252414794921875,-0.2643246352672577,0.3154296576976776,0.1270158886909485
1695804836859413500,1.26241357421875,-0.32141217589378357,0.3574514091014862,-0.06795146316289902
1695804836869414000,1.272413818359375,-0.3877086341381073,0.33246371150016785,-0.18157392740249634
1695804836879412700,1.282412841796875,-0.44884175062179565,0.24894163012504578,-0.21589115262031555
1695804836889412600,1.29241259765625,-0.483854740858078,0.13956229388713837,-0.1842527836561203
1695804836899411700,1.30241162109375,-0.4632759392261505,0.03271414339542389,-0.09858661890029907
1695804836909410800,1.312410888671875,-0.39506995677948,-0.0511840395629406,0.012925234623253345
1695804836919410700,1.32241064453125,-0.3223233222961426,-0.09522153437137604,0.1286880522966385
1695804836929409800,1.332409912109375,-0.2803995907306671,-0.12907521426677704,0.22577345371246338
1695804836939409700,1.34240966796875,-0.2635151743888855,-0.12098851799964905,0.28810635209083557
1695804836949408800,1.35240869140625,-0.24641582369804382,-0.027608156204223633,0.29700905084609985
1695804836959407900,1.362407958984375,-0.22741150856018066,0.1564764678478241,0.2228088527917862
1695804836969407700,1.37240771484375,-0.17611944675445557,0.4209664762020111,0.05392772704362869
1695804836979406800,1.38240673828125,-0.07516008615493774,0.6886836290359497,-0.13742652535438538
1695804836989406700,1.39240673828125,0.039488643407821655,0.8768264651298523,-0.29851067066192627
1695804836999405600,1.402405517578125,0.1397782266139984,0.9767043590545654,-0.39709609746932983
1695804837009406000,1.412406005859375,0.1796773374080658,0.9509040117263794,-0.3944871723651886
1695804837019404500,1.422404541015625,0.14756254851818085,0.806789755821228,-0.29975825548171997
1695804837029403600,1.432403564453125,0.06588149815797806,0.5651471614837646,-0.15045395493507385
1695804837039403800,1.44240380859375,-0.03469410538673401,0.2662715017795563,0.029241248965263367
1695804837049402600,1.452402587890625,-0.13039593398571014,0.007411458529531956,0.20411378145217896
1695804837059402800,1.46240283203125,-0.18535585701465607,-0.12281791865825653,0.30979040265083313
1695804837069402000,1.472402099609375,-0.1766640990972519,-0.10811834037303925,0.33125150203704834
1695804837079401000,1.48240087890625,-0.15498356521129608,-0.028730034828186035,0.3042187988758087
1695804837089401000,1.492401123046875,-0.1329936534166336,0.07366680353879929,0.2372671514749527
1695804837099400000,1.50239990234375,-0.10991869121789932,0.1852865368127823,0.15472380816936493
1695804837109400000,1.512400146484375,-0.08818044513463974,0.2571294605731964,0.08152437210083008
1695804837119399200,1.522399169921875,-0.09733159840106964,0.28524523973464966,0.054791294038295746
1695804837129398000,1.53239794921875,-0.12045430392026901,0.28777939081192017,0.07702463120222092
1695804837139398100,1.542398193359375,-0.13930174708366394,0.2893005907535553,0.12217160314321518
1695804837149397200,1.552397216796875,-0.13179336488246918,0.3528243899345398,0.1876380741596222
1695804837159397000,1.562397216796875,-0.09456875920295715,0.3931715488433838,0.2740834951400757
1695804837169396200,1.572396240234375,-0.07539767771959305,0.35615274310112,0.34843289852142334
1695804837179396000,1.58239599609375,-0.08654753118753433,0.2752155363559723,0.3721848428249359
1695804837189395200,1.592395263671875,-0.10865101963281631,0.20982304215431213,0.33060216903686523
1695804837199394300,1.602394287109375,-0.14238688349723816,0.18746739625930786,0.21552936732769012
1695804837209394200,1.612394287109375,-0.18437190353870392,0.17778822779655457,0.06535214185714722
1695804837219393000,1.62239306640625,-0.20303507149219513,0.17940528690814972,-0.07052979618310928
1695804837229393000,1.632392822265625,-0.1881348192691803,0.14913806319236755,-0.17268812656402588
1695804837239392000,1.64239208984375,-0.15653587877750397,0.10204671323299408,-0.21953579783439636
1695804837249391000,1.65239111328125,-0.13469332456588745,0.11040464043617249,-0.23530739545822144
1695804837259391000,1.662390869140625,-0.1481444239616394,0.19828470051288605,-0.24265027046203613
1695804837269390000,1.67239013671875,-0.1754043996334076,0.3329022228717804,-0.24197863042354584
1695804837279390200,1.68239013671875,-0.2270718514919281,0.47251495718955994,-0.23330551385879517
1695804837289389000,1.69238916015625,-0.2922241687774658,0.5858660340309143,-0.21785083413124084
1695804837299388200,1.70238818359375,-0.3483723998069763,0.6750528812408447,-0.18727721273899078
1695804837309388300,1.71238818359375,-0.3730551600456238,0.7394988536834717,-0.13566377758979797
1695804837319387100,1.72238720703125,-0.39071083068847656,0.756358802318573,-0.09102094173431396
1695804837329387300,1.73238720703125,-0.4078748822212219,0.7438061833381653,-0.047056861221790314
1695804837339386000,1.74238623046875,-0.41016680002212524,0.7305577993392944,0.014672284945845604
1695804837349386200,1.75238623046875,-0.40464678406715393,0.6699132919311523,0.07160472869873047
1695804837359385000,1.762385009765625,-0.3572598397731781,0.5876749157905579,0.1342145949602127
1695804837369384000,1.772384033203125,-0.2702732980251312,0.48450329899787903,0.2170441448688507
1695804837379384000,1.782384033203125,-0.1578514277935028,0.3582974374294281,0.333920955657959
1695804837389383200,1.792383056640625,-0.06426163017749786,0.20071399211883545,0.46370646357536316
1695804837399383000,1.802383056640625,-0.010877500288188457,0.027484681457281113,0.5645894408226013
1695804837409382100,1.812382080078125,0.007911495864391327,-0.12593775987625122,0.6096908450126648
1695804837419381200,1.82238134765625,0.0005595732945948839,-0.2539606988430023,0.5933776497840881
1695804837429381000,1.832381103515625,-0.02261916734278202,-0.3339632749557495,0.5128391981124878
1695804837439380200,1.842380126953125,-0.04631384462118149,-0.3270185589790344,0.3728730082511902
1695804837449380000,1.852380126953125,-0.06538066267967224,-0.23414264619350433,0.19022707641124725
1695804837459379200,1.862379150390625,-0.0887158140540123,-0.08861421048641205,0.00315014086663723
1695804837469379000,1.872379150390625,-0.12449174374341965,0.03326826170086861,-0.15776367485523224
1695804837479378200,1.882378173828125,-0.16650044918060303,0.09080106765031815,-0.253024160861969
1695804837489377000,1.892376953125,-0.19598105549812317,0.08456519991159439,-0.2719346582889557
1695804837499377000,1.902376953125,-0.18826481699943542,0.01536455936729908,-0.22200676798820496
1695804837509376000,1.9123759765625,-0.14609533548355103,-0.07292567193508148,-0.11512377858161926
1695804837519376100,1.922376220703125,-0.09032715111970901,-0.14586885273456573,0.006234343629330397
1695804837529375000,1.932375,-0.01109638437628746,-0.2006368786096573,0.12297401577234268
1695804837539374000,1.9423740234375,0.07538870722055435,-0.20457810163497925,0.2367975115776062
1695804837549374200,1.952374267578125,0.14007826149463654,-0.18786559998989105,0.3226567208766937
1695804837559373000,1.962373046875,0.15351471304893494,-0.1373707354068756,0.3600621521472931
1695804837569373200,1.972373291015625,0.1149652898311615,-0.040507711470127106,0.320197731256485
1695804837579372300,1.982372314453125,0.08800584822893143,0.12333369255065918,0.2255375236272812
1695804837589372200,1.9923720703125,0.09928542375564575,0.32224974036216736,0.11907856911420822
1695804837599371300,2.002371337890625,0.09704357385635376,0.4666742980480194,0.0033194792922586203
1695804837609370000,2.0123701171875,0.08535754680633545,0.5280850529670715,-0.11241357773542404
1695804837619370200,2.022370361328125,0.08668753504753113,0.510032057762146,-0.19993409514427185
1695804837629369000,2.032369140625,0.11093171685934067,0.4202268123626709,-0.23362332582473755
1695804837639369000,2.042368896484375,0.14226700365543365,0.25678861141204834,-0.22574035823345184
1695804837649368000,2.0523681640625,0.18280848860740662,0.07799825072288513,-0.1845269352197647
1695804837659367200,2.0623671875,0.2166903018951416,-0.09860288351774216,-0.15339404344558716
1695804837669367000,2.072366943359375,0.2279234230518341,-0.23924490809440613,-0.131662055850029
1695804837679366100,2.0823662109375,0.23596936464309692,-0.31263893842697144,-0.10465200245380402
1695804837689366000,2.092365966796875,0.22788091003894806,-0.31671881675720215,-0.09752574563026428
1695804837699365000,2.102365234375,0.2136833369731903,-0.27291780710220337,-0.1112801730632782
1695804837709364200,2.1123642578125,0.20308788120746613,-0.21143226325511932,-0.13680650293827057
1695804837719364000,2.122364013671875,0.2091044932603836,-0.1925315409898758,-0.15508563816547394
1695804837729363200,2.13236328125,0.22391243278980255,-0.20842547714710236,-0.15659137070178986
1695804837739363000,2.142363037109375,0.23500797152519226,-0.2513151466846466,-0.15166158974170685
1695804837749362200,2.152362060546875,0.22792434692382812,-0.3026559352874756,-0.15703876316547394
1695804837759362300,2.1623623046875,0.20212498307228088,-0.3239859938621521,-0.17581458389759064
1695804837769361000,2.17236083984375,0.16489483416080475,-0.28400200605392456,-0.21685634553432465
1695804837779360000,2.182360107421875,0.1281338930130005,-0.2212430238723755,-0.25829780101776123
1695804837789360000,2.192360107421875,0.09999798238277435,-0.1569281667470932,-0.29371050000190735
1695804837799359000,2.20235888671875,0.09094270318746567,-0.10922430455684662,-0.29756996035575867
1695804837809359000,2.212359130859375,0.09932360798120499,-0.08332959562540054,-0.25818175077438354
1695804837819358200,2.222358154296875,0.12246434390544891,-0.10904880613088608,-0.18825004994869232
1695804837829357000,2.232357177734375,0.1459382176399231,-0.16656680405139923,-0.12417197227478027
1695804837839357200,2.242357177734375,0.16562244296073914,-0.2506694495677948,-0.07549498230218887
1695804837849356300,2.252356201171875,0.18542926013469696,-0.3357226848602295,-0.0590553805232048
1695804837859356200,2.262356201171875,0.19207490980625153,-0.3904320001602173,-0.08814775198698044
1695804837869355300,2.272355224609375,0.20546022057533264,-0.39291325211524963,-0.12909172475337982
1695804837879354000,2.28235400390625,0.21168829500675201,-0.3835141658782959,-0.1668042242527008
1695804837889354200,2.292354248046875,0.20146289467811584,-0.3360973000526428,-0.18394266068935394
1695804837899353000,2.30235302734375,0.1862810105085373,-0.28077998757362366,-0.19775009155273438
1695804837909353000,2.31235302734375,0.15715713798999786,-0.19809317588806152,-0.23348790407180786
1695804837919352000,2.32235205078125,0.11200990527868271,-0.11818956583738327,-0.2922300398349762
1695804837929352000,2.33235205078125,0.06519737094640732,-0.05143425613641739,-0.3614899218082428
1695804837939351000,2.34235107421875,0.03757026419043541,-0.014568116515874863,-0.4204168915748596
1695804837949350100,2.35235009765625,0.03475327417254448,-0.03632015734910965,-0.45815157890319824
1695804837959350000,2.36235009765625,0.03792962431907654,-0.039493314921855927,-0.4513503909111023
1695804837969349000,2.37234912109375,0.03521665558218956,-0.08330587297677994,-0.414907306432724
1695804837979349200,2.382349365234375,0.009491853415966034,-0.23697905242443085,-0.3901928961277008
1695804837989348000,2.39234814453125,-0.029708826914429665,-0.3947799503803253,-0.4043831527233124
1695804837999347200,2.40234716796875,-0.06755954027175903,-0.488986074924469,-0.4541296660900116
1695804838009347300,2.412347412109375,-0.09804919362068176,-0.4890962243080139,-0.5234891772270203
1695804838019346000,2.422345947265625,-0.1139432042837143,-0.42072436213493347,-0.6057319045066833
1695804838029346300,2.43234619140625,-0.08857855945825577,-0.33382129669189453,-0.6340667605400085
1695804838039345200,2.44234521484375,-0.03853217512369156,-0.2652672529220581,-0.5741328597068787
1695804838049344000,2.452343994140625,0.001499490812420845,-0.22957074642181396,-0.43784236907958984
1695804838059344100,2.46234423828125,0.006187719292938709,-0.22881600260734558,-0.2833859324455261
1695804838069343000,2.472343017578125,-0.023871611803770065,-0.21797016263008118,-0.1527848094701767
1695804838079342800,2.4823427734375,-0.08860400319099426,-0.18317890167236328,-0.0919097438454628
1695804838089341700,2.492341796875,-0.14617837965488434,-0.11901776492595673,-0.0995858833193779
1695804838099341600,2.502341552734375,-0.171535924077034,-0.04309370741248131,-0.15421611070632935
1695804838109340700,2.512340576171875,-0.15784986317157745,0.04664108529686928,-0.23035715520381927
1695804838119339800,2.52233984375,-0.10669401288032532,0.14759698510169983,-0.2880694568157196
1695804838129339600,2.532339599609375,-0.049039069563150406,0.21677939593791962,-0.3029806613922119
1695804838139338800,2.5423388671875,-0.007342759054154158,0.25297147035598755,-0.2720879912376404
1695804838149338600,2.552338623046875,0.015469469130039215,0.22847925126552582,-0.20414261519908905
1695804838159337700,2.562337646484375,0.028570091351866722,0.15354348719120026,-0.08871322125196457
1695804838169336800,2.5723369140625,0.033449362963438034,0.04509532451629639,0.057020314037799835
1695804838179336700,2.582336669921875,0.03769524022936821,-0.08832664787769318,0.20437461137771606
1695804838189335800,2.592335693359375,0.03215666860342026,-0.19899393618106842,0.32097911834716797
1695804838199336000,2.6023359375,0.009955227375030518,-0.2750282287597656,0.3734159469604492
1695804838209334800,2.612334716796875,-0.014183692634105682,-0.3047710061073303,0.3570888042449951
1695804838219333600,2.622333740234375,-0.02644648402929306,-0.26629310846328735,0.29503288865089417
1695804838229333800,2.632333740234375,-0.033745329827070236,-0.1918916255235672,0.21585944294929504
1695804838239332600,2.64233251953125,-0.0489937923848629,-0.11655957996845245,0.1486596316099167
1695804838249332700,2.652332763671875,-0.07368091493844986,-0.07266515493392944,0.10205033421516418
1695804838259331600,2.66233154296875,-0.10895022004842758,-0.06892155110836029,0.08216637372970581
1695804838269331700,2.672331787109375,-0.13749288022518158,-0.08801302313804626,0.09230165183544159
1695804838279330800,2.682330810546875,-0.15072718262672424,-0.12044872343540192,0.11746852099895477
1695804838289329700,2.69232958984375,-0.13923554122447968,-0.16378366947174072,0.15734539926052094
1695804838299329800,2.702329833984375,-0.11480104178190231,-0.21137142181396484,0.21558234095573425
1695804838309329000,2.712328857421875,-0.07877078652381897,-0.2695961594581604,0.2775513529777527
1695804838319328800,2.722328857421875,-0.07389453798532486,-0.3583452105522156,0.34116682410240173
1695804838329327900,2.732327880859375,-0.11520416289567947,-0.4934055507183075,0.39869028329849243
1695804838339327000,2.742326904296875,-0.20422965288162231,-0.6708309054374695,0.4475712776184082
1695804838349326800,2.752326904296875,-0.31578969955444336,-0.7620700597763062,0.5100065469741821
1695804838359325700,2.76232568359375,-0.40160873532295227,-0.7671694755554199,0.5338663458824158
1695804838369325600,2.77232568359375,-0.4340863823890686,-0.7009583115577698,0.4972231090068817
1695804838379324700,2.78232470703125,-0.4149819016456604,-0.5076897740364075,0.39386609196662903
1695804838389324500,2.792324462890625,-0.3136623799800873,-0.27102723717689514,0.25883808732032776
1695804838399323600,2.80232373046875,-0.1594192534685135,0.007152711506932974,0.12224268913269043
1695804838409322800,2.81232275390625,-0.01046679075807333,0.23375816643238068,0.011528156697750092
1695804838419322600,2.822322509765625,0.10196547955274582,0.3438548445701599,-0.04660678654909134
1695804838429321700,2.83232177734375,0.16912321746349335,0.34023916721343994,-0.047794159501791
1695804838439321900,2.84232177734375,0.19267462193965912,0.2625552713871002,0.002512153470888734
1695804838449320700,2.85232080078125,0.17744803428649902,0.1718599498271942,0.07836199551820755
1695804838459319800,2.86231982421875,0.12552864849567413,0.10610195994377136,0.15500138700008392
1695804838469320000,2.87231982421875,0.05131060630083084,0.08402825146913528,0.20945942401885986
1695804838479318800,2.88231884765625,-0.017012525349855423,0.10286398977041245,0.23176446557044983
1695804838489319000,2.89231884765625,-0.05687522143125534,0.1432497799396515,0.20969602465629578
1695804838499317800,2.90231787109375,-0.04664229601621628,0.20422790944576263,0.14278623461723328
1695804838509316600,2.912316650390625,0.013105890713632107,0.28254973888397217,0.04387360438704491
1695804838519316700,2.922316650390625,0.0968945324420929,0.3331383466720581,-0.052957337349653244
1695804838529315600,2.932315673828125,0.17181797325611115,0.3378344476222992,-0.12364168465137482
1695804838539315700,2.942315673828125,0.2058427780866623,0.29907694458961487,-0.14671505987644196
1695804838549314800,2.952314697265625,0.20542895793914795,0.2530784010887146,-0.10987266153097153
1695804838559314700,2.962314697265625,0.1887272298336029,0.22126880288124084,-0.03790685161948204
1695804838569313800,2.972313720703125,0.17688339948654175,0.19608013331890106,0.049129191786050797
1695804838579313000,2.98231298828125,0.16117101907730103,0.1569116860628128,0.1379682570695877
1695804838589312800,2.992312744140625,0.13311070203781128,0.125784769654274,0.23385250568389893
1695804838599312000,3.002311767578125,0.11282086372375488,0.09512139856815338,0.30923619866371155
1695804838609311700,3.012311767578125,0.11010648310184479,0.08710204064846039,0.337343692779541
1695804838619310800,3.022310791015625,0.13299928605556488,0.08743280172348022,0.3291459381580353
1695804838629309700,3.032309814453125,0.1659025251865387,0.11815599352121353,0.2771150767803192
1695804838639309600,3.0423095703125,0.18470337986946106,0.171967014670372,0.17896747589111328
1695804838649308700,3.05230859375,0.1824999451637268,0.1993936002254486,0.051181476563215256
1695804838659308500,3.06230859375,0.1513146162033081,0.20201388001441956,-0.07289893180131912
1695804838669307600,3.0723076171875,0.11599162220954895,0.18636545538902283,-0.17184028029441833
1695804838679307800,3.082307861328125,0.11080058664083481,0.1437697857618332,-0.23536625504493713
1695804838689306600,3.092306640625,0.1307581067085266,0.09857630729675293,-0.2661580443382263
1695804838699305700,3.1023056640625,0.1529933661222458,0.0642409697175026,-0.26177874207496643
1695804838709305900,3.112305908203125,0.1797710806131363,0.05728636682033539,-0.23573598265647888
1695804838719304700,3.1223046875,0.2036532461643219,0.08874095976352692,-0.18744568526744843
1695804838729304800,3.132304931640625,0.22551842033863068,0.16281984746456146,-0.09420771151781082
1695804838739304000,3.142303955078125,0.23876206576824188,0.11114680022001266,0.01770736649632454
1695804838749302500,3.152302490234375,0.23074902594089508,-0.0060019725933671,0.08562715351581573
1695804838759303000,3.162302978515625,0.20476137101650238,-0.10156764835119247,0.06313329935073853
1695804838769301800,3.1723017578125,0.18706431984901428,-0.11907005310058594,-0.02713381126523018
1695804838779301600,3.182301513671875,0.18669919669628143,-0.0737968385219574,-0.17598535120487213
1695804838789300700,3.19230078125,0.1985674649477005,0.0003135586157441139,-0.34485119581222534
1695804838799299800,3.2022998046875,0.23574092984199524,0.11941412091255188,-0.48558035492897034
1695804838809299700,3.2122998046875,0.29829317331314087,0.24446886777877808,-0.5618054270744324
1695804838819298800,3.222298828125,0.36160343885421753,0.3409908711910248,-0.5656275749206543
1695804838829298700,3.232298583984375,0.39826157689094543,0.39311808347702026,-0.49332886934280396
1695804838839297800,3.2422978515625,0.40673255920410156,0.373268187046051,-0.3635607659816742
1695804838849297700,3.252297607421875,0.3914121687412262,0.3146383464336395,-0.1975620537996292
1695804838859296800,3.262296875,0.3690573275089264,0.2448001354932785,-0.03837345913052559
1695804838869295900,3.2722958984375,0.3569094240665436,0.185562402009964,0.06684727221727371
1695804838879295700,3.282295654296875,0.3579975962638855,0.16813574731349945,0.09031611680984497
1695804838889294600,3.292294677734375,0.37752068042755127,0.19045419991016388,0.05815047398209572
1695804838899295000,3.302294921875,0.4143756330013275,0.24881790578365326,0.00456554489210248
1695804838909293600,3.31229345703125,0.4688059985637665,0.3134209215641022,-0.032222848385572433
1695804838919292700,3.322292724609375,0.5293055772781372,0.34446272253990173,-0.04309067502617836
1695804838929292800,3.332292724609375,0.5709388852119446,0.2937133014202118,-0.026952307671308517
1695804838939291600,3.342291748046875,0.585178792476654,0.17930550873279572,0.029342390596866608
1695804838949291800,3.352291748046875,0.5882009267807007,0.02673211693763733,0.11553211510181427
1695804838959290600,3.36229052734375,0.595201849937439,-0.11995239555835724,0.19685839116573334
1695804838969290800,3.372290771484375,0.6036561131477356,-0.2116900235414505,0.26293790340423584
1695804838979289900,3.382289794921875,0.6091033220291138,-0.24369217455387115,0.28787761926651
1695804838989288700,3.392288818359375,0.589544415473938,-0.23656266927719116,0.25343161821365356
1695804838999288800,3.402288818359375,0.539333701133728,-0.18102936446666718,0.17792220413684845
1695804839009288000,3.412287841796875,0.45871827006340027,-0.0937996506690979,0.10162291675806046
1695804839019287800,3.422287841796875,0.3603783845901489,-0.011522887274622917,0.03270217403769493
1695804839029286700,3.43228662109375,0.26699551939964294,0.0732445940375328,-0.005422407761216164
1695804839039285800,3.44228564453125,0.21322764456272125,0.15896348655223846,-0.01063394732773304
1695804839049285600,3.45228564453125,0.19836369156837463,0.22338907420635223,0.013217749074101448
1695804839059284700,3.46228466796875,0.1904093623161316,0.23720768094062805,0.03511985391378403
1695804839069284900,3.472284912109375,0.1864933967590332,0.221572145819664,0.056806180626153946
1695804839079284000,3.482283935546875,0.19312307238578796,0.17897436022758484,0.06750623136758804
1695804839089283000,3.492282958984375,0.19627182185649872,0.12093211710453033,0.060257673263549805
1695804839099283000,3.502282958984375,0.18873347342014313,0.043903645128011703,0.046475283801555634
1695804839109282000,3.512281982421875,0.18142881989479065,-0.003906263038516045,0.03344589099287987
1695804839119282000,3.522281982421875,0.1834578812122345,-0.021659426391124725,0.022769808769226074
1695804839129281000,3.532281005859375,0.1848050355911255,0.018775656819343567,0.023784350603818893
1695804839139281200,3.54228125,0.17327195405960083,0.08187153190374374,0.016927510499954224
1695804839149280000,3.552280029296875,0.1317373365163803,0.15454967319965363,-0.009410270489752293
1695804839159279000,3.562279052734375,0.09728030115365982,0.23142021894454956,-0.03206844627857208
1695804839169279000,3.572279052734375,0.08142253756523132,0.2729889750480652,-0.053644999861717224
1695804839179277800,3.58227783203125,0.08978459984064102,0.2507462799549103,-0.07864382863044739
1695804839189278000,3.59227783203125,0.11938545852899551,0.17113374173641205,-0.09538708627223969
1695804839199276800,3.60227685546875,0.16694632172584534,0.038973577320575714,-0.08830919861793518
1695804839209276000,3.61227587890625,0.22044512629508972,-0.13142907619476318,-0.04525737464427948
1695804839219276000,3.622276123046875,0.26862385869026184,-0.2792869806289673,0.018858490511775017
1695804839229275000,3.63227490234375,0.28871092200279236,-0.34873151779174805,0.0703452005982399
1695804839239275000,3.64227490234375,0.27880316972732544,-0.34025895595550537,0.10113266855478287
1695804839249274000,3.652274169921875,0.22803103923797607,-0.287567675113678,0.13271644711494446
1695804839259273000,3.66227294921875,0.15234453976154327,-0.2826637327671051,0.16284611821174622
1695804839269273000,3.672273193359375,0.06101030111312866,-0.3328798711299896,0.2268545925617218
1695804839279272200,3.682272216796875,-0.008956534788012505,-0.4150197505950928,0.3064729869365692
1695804839289272000,3.69227197265625,-0.05261163040995598,-0.5028907656669617,0.3760354518890381
1695804839299271200,3.702271240234375,-0.08113035559654236,-0.5540024638175964,0.4132257103919983
1695804839309271000,3.71227099609375,-0.11702993512153625,-0.576047420501709,0.39767009019851685
1695804839319270000,3.722269775390625,-0.16986492276191711,-0.5596447587013245,0.31548652052879333
1695804839329269000,3.73226904296875,-0.23298898339271545,-0.5145567059516907,0.16938214004039764
1695804839339268900,3.742268798828125,-0.2845544219017029,-0.4338567852973938,-0.003774200100451708
1695804839349268000,3.75226806640625,-0.266975998878479,-0.2954435348510742,-0.16399727761745453
1695804839359267800,3.762267822265625,-0.18757544457912445,-0.13101942837238312,-0.2867293059825897
1695804839369267000,3.772266845703125,-0.11458975821733475,0.04288549721240997,-0.3757689595222473
1695804839379266000,3.78226611328125,-0.0808861181139946,0.1638856828212738,-0.39299532771110535
1695804839389266000,3.792265869140625,-0.12520965933799744,0.28614482283592224,-0.29210200905799866
1695804839399265000,3.80226513671875,-0.20503446459770203,0.35460856556892395,-0.10707753896713257
1695804839409265200,3.81226513671875,-0.2785683274269104,0.323961079120636,0.0795273631811142
1695804839419264000,3.822263916015625,-0.33950889110565186,0.19309468567371368,0.19006212055683136
1695804839429262800,3.832262939453125,-0.38711094856262207,-0.05538397282361984,0.17507055401802063
1695804839439263200,3.84226318359375,-0.40879788994789124,-0.35646072030067444,0.019875917583703995
1695804839449261800,3.85226171875,-0.3920859098434448,-0.5758470296859741,-0.22869378328323364
1695804839459262000,3.862261962890625,-0.3533092141151428,-0.6568859815597534,-0.4562723636627197
1695804839469261000,3.872260986328125,-0.3151795566082001,-0.6254979968070984,-0.6216780543327332
1695804839479261000,3.882260986328125,-0.2810516953468323,-0.5002955794334412,-0.6995204091072083
1695804839489260000,3.892260009765625,-0.24223746359348297,-0.3224121928215027,-0.6850659251213074
1695804839499259000,3.9022587890625,-0.21173255145549774,-0.09622275829315186,-0.5703880786895752
1695804839509259000,3.912259033203125,-0.16770853102207184,0.13245108723640442,-0.3546558916568756
1695804839519258000,3.922258056640625,-0.13159260153770447,0.2966799736022949,-0.08927349001169205
1695804839529258000,3.932258056640625,-0.11728768795728683,0.3869171142578125,0.19302448630332947
1695804839539257000,3.942257080078125,-0.10851123929023743,0.454537957906723,0.4861738085746765
1695804839549257000,3.952257080078125,-0.09329518675804138,0.48964112997055054,0.7392439246177673
1695804839559256000,3.962256103515625,-0.07603363692760468,0.4914257228374481,0.9262582659721375
1695804839569256200,3.972256103515625,-0.05484665185213089,0.43568703532218933,1.0153040885925293
1695804839579255000,3.982255126953125,-0.03352511674165726,0.3270052969455719,1.0066229104995728
1695804839589254000,3.99225390625,0.0015146764926612377,0.18449364602565765,0.9095945358276367
1695804839599254000,4.00225390625,0.039491087198257446,0.02013399638235569,0.7412952780723572
1695804839609252900,4.0122529296875,0.04822201281785965,-0.1443217247724533,0.5210274457931519
1695804839619253000,4.0222529296875,-0.0010110490256920457,-0.26393118500709534,0.28228622674942017
1695804839629251800,4.032251953125,-0.08639045804738998,-0.28555822372436523,0.07111600041389465
1695804839639251000,4.0422509765625,-0.18919354677200317,-0.23796644806861877,-0.11716922372579575
1695804839649251000,4.0522509765625,-0.28892162442207336,-0.11690418422222137,-0.2567470669746399
1695804839659250000,4.06225,-0.35298290848731995,0.03318224847316742,-0.3216951787471771
1695804839669250000,4.07225,-0.39036470651626587,0.1888173520565033,-0.29388460516929626
1695804839679249200,4.082249267578125,-0.4089490473270416,0.2774103283882141,-0.19399982690811157
1695804839689249000,4.0922490234375,-0.415345162153244,0.2557547390460968,-0.06259122490882874
1695804839699248000,4.102248046875,-0.4225998818874359,0.18534450232982635,0.06579204648733139
1695804839709247000,4.1122470703125,-0.43201449513435364,0.1496157944202423,0.1774270385503769
1695804839719247000,4.1222470703125,-0.42101722955703735,0.15659408271312714,0.25386932492256165
1695804839729246000,4.132245849609375,-0.39198899269104004,0.16764406859874725,0.2808540165424347
1695804839739245800,4.142245849609375,-0.36625778675079346,0.18648940324783325,0.27209994196891785
1695804839749245000,4.152244873046875,-0.32765525579452515,0.21082386374473572,0.23604567348957062
1695804839759244000,4.162244140625,-0.27789515256881714,0.2328072041273117,0.19393737614154816
1695804839769244000,4.172243896484375,-0.22669102251529694,0.2537890076637268,0.17400527000427246
1695804839779243000,4.182242919921875,-0.17176811397075653,0.2572956085205078,0.1793755292892456
1695804839789243000,4.192242919921875,-0.11894325166940689,0.24442046880722046,0.1923481822013855
1695804839799242000,4.202241943359375,-0.06910565495491028,0.21638935804367065,0.206004336476326
1695804839809241000,4.212240966796875,-0.02988075278699398,0.15494570136070251,0.22329331934452057
1695804839819241000,4.222240966796875,-0.02674328163266182,0.04758781939744949,0.23132993280887604
1695804839829240000,4.232239990234375,-0.08050095289945602,-0.06301339715719223,0.24609999358654022
1695804839839240200,4.242240234375,-0.15797871351242065,-0.1257055401802063,0.2618374228477478
1695804839849238800,4.25223876953125,-0.2329426407814026,-0.1346714198589325,0.2550293803215027
1695804839859239200,4.2622392578125,-0.30001407861709595,-0.10026629269123077,0.22179661691188812
1695804839869238000,4.272238037109375,-0.35426652431488037,-0.042181916534900665,0.15578986704349518
1695804839879236900,4.28223681640625,-0.3761068284511566,0.008948644623160362,0.07093649357557297
1695804839889237000,4.292237060546875,-0.3598277270793915,0.040912091732025146,-0.019124271348118782
1695804839899235800,4.30223583984375,-0.31573164463043213,0.04147428646683693,-0.09831230342388153
1695804839909236000,4.312236083984375,-0.2714398503303528,-0.005152622237801552,-0.14517100155353546
1695804839919235000,4.322235107421875,-0.2434830367565155,-0.10465897619724274,-0.1476067155599594
1695804839929234000,4.33223388671875,-0.2529085874557495,-0.2093057781457901,-0.08748749643564224
1695804839939234000,4.342234130859375,-0.29930564761161804,-0.29332560300827026,0.0117892911657691
1695804839949233200,4.352233154296875,-0.3271368443965912,-0.3704831898212433,0.1266602873802185
1695804839959233000,4.36223291015625,-0.2960771918296814,-0.40132978558540344,0.23833276331424713
1695804839969232100,4.372232177734375,-0.20152588188648224,-0.400959849357605,0.32167115807533264
1695804839979231000,4.38223095703125,-0.08838281780481339,-0.41062605381011963,0.34674403071403503
1695804839989231000,4.392231201171875,-0.010521967895328999,-0.4326315224170685,0.30414316058158875
1695804839999230000,4.40222998046875,0.0017000767402350903,-0.4535815417766571,0.21859949827194214
1695804840009229800,4.412229736328125,-0.03946777060627937,-0.4793899655342102,0.11911316215991974
1695804840019229000,4.42222900390625,-0.12295201420783997,-0.5009551644325256,0.05599784106016159
1695804840029228800,4.432228759765625,-0.19886785745620728,-0.510013997554779,0.032364197075366974
1695804840039228000,4.442227783203125,-0.23630471527576447,-0.5111064314842224,0.03094765916466713
1695804840049227000,4.45222705078125,-0.22969184815883636,-0.4890440106391907,0.029595203697681427
1695804840059227000,4.462226806640625,-0.19173061847686768,-0.45899635553359985,0.007332241628319025
1695804840069225500,4.4722255859375,-0.1487451046705246,-0.4179539680480957,-0.03767487034201622
1695804840079225600,4.4822255859375,-0.1410967856645584,-0.3732786178588867,-0.10443871468305588
1695804840089224700,4.492224609375,-0.1743084043264389,-0.3385905623435974,-0.1786322444677353
1695804840099223300,4.502223388671875,-0.2356702983379364,-0.3247455656528473,-0.2576535642147064
1695804840109223700,4.5122236328125,-0.2845137417316437,-0.32928600907325745,-0.33244216442108154
1695804840119222500,4.522222412109375,-0.3144942820072174,-0.29643112421035767,-0.3890148997306824
1695804840129222400,4.532222412109375,-0.33001649379730225,-0.21487118303775787,-0.4173392653465271
1695804840139221500,4.542221435546875,-0.3345273435115814,-0.08427083492279053,-0.4339570999145508
1695804840149221400,4.552221435546875,-0.3172324597835541,0.06918301433324814,-0.41679003834724426
1695804840159220500,4.562220458984375,-0.27257150411605835,0.17657151818275452,-0.34063270688056946
1695804840169219600,4.572219482421875,-0.2017868012189865,0.13603155314922333,-0.2272355705499649
1695804840179219500,4.582219482421875,-0.15434445440769196,-0.013350211083889008,-0.13697144389152527
1695804840189218600,4.592218505859375,-0.15551786124706268,-0.19498392939567566,-0.09193404018878937
1695804840199218400,4.602218505859375,-0.1671454906463623,-0.3188427686691284,-0.09072443097829819
1695804840209217500,4.612217529296875,-0.1728515625,-0.3694213926792145,-0.1274379938840866
1695804840219216600,4.622216552734375,-0.19359305500984192,-0.32942256331443787,-0.18386584520339966
1695804840229216500,4.632216552734375,-0.20044757425785065,-0.1970578283071518,-0.24606791138648987
1695804840239215400,4.64221533203125,-0.18942901492118835,0.00047681061550974846,-0.30197644233703613
1695804840249215500,4.652215576171875,-0.1570841670036316,0.18459461629390717,-0.31164607405662537
1695804840259214300,4.66221435546875,-0.12145240604877472,0.2740800380706787,-0.2722475230693817
1695804840269213400,4.67221337890625,-0.09262335300445557,0.26481011509895325,-0.1945972740650177
1695804840279213300,4.68221337890625,-0.06316453218460083,0.19630560278892517,-0.0873456597328186
1695804840289212400,4.69221240234375,-0.03853923827409744,0.10256044566631317,0.010018211789429188
1695804840299212500,4.702212646484375,-0.01939350552856922,0.023096514865756035,0.04680498689413071
1695804840309211400,4.71221142578125,-0.019071124494075775,-0.039180852472782135,0.009751089848577976
1695804840319211500,4.72221142578125,-0.033274032175540924,-0.047370072454214096,-0.0883224755525589
1695804840329210600,4.732210693359375,-0.016489092260599136,0.04235541447997093,-0.18809525668621063
1695804840339209500,4.74220947265625,0.039963796734809875,0.14857372641563416,-0.24785472452640533
1695804840349209600,4.752209716796875,0.1081366017460823,0.21578441560268402,-0.23766428232192993
1695804840359208700,4.762208740234375,0.16787903010845184,0.2037906050682068,-0.1525491178035736
1695804840369208600,4.77220849609375,0.2062552273273468,0.10633151978254318,-0.011623461730778217
1695804840379207400,4.78220751953125,0.20424772799015045,-0.0559210367500782,0.15670375525951385
1695804840389206500,4.79220654296875,0.16436241567134857,-0.25669988989830017,0.3065491318702698
1695804840399206400,4.802206298828125,0.09242592006921768,-0.442269504070282,0.398134708404541
1695804840409205500,4.81220556640625,-0.02829851768910885,-0.5540416836738586,0.44747617840766907
1695804840419205400,4.822205322265625,-0.17562805116176605,-0.5485457181930542,0.47013726830482483
1695804840429204500,4.83220458984375,-0.29622557759284973,-0.4595722258090973,0.47470101714134216
1695804840439204400,4.842204345703125,-0.36794131994247437,-0.3098194897174835,0.4717017710208893
1695804840449203500,4.852203369140625,-0.40422672033309937,-0.1209888756275177,0.4579041302204132
1695804840459202600,4.86220263671875,-0.41719016432762146,0.05190566927194595,0.42622610926628113
1695804840469202400,4.872202392578125,-0.41389694809913635,0.16804806888103485,0.3637736737728119
1695804840479201500,4.882201416015625,-0.3947077989578247,0.23187951743602753,0.28603678941726685
1695804840489201700,4.89220166015625,-0.36991074681282043,0.19154766201972961,0.2123194932937622
1695804840499200500,4.902200439453125,-0.34818413853645325,0.07286708056926727,0.14625659584999084
1695804840509199400,4.912199462890625,-0.33135250210762024,-0.08765514940023422,0.058246761560440063
1695804840519199500,4.922199462890625,-0.32535451650619507,-0.210500106215477,-0.0352240651845932
1695804840529198300,4.9321982421875,-0.3041214942932129,-0.254744291305542,-0.087782122194767
1695804840539198500,4.942198486328125,-0.29021206498146057,-0.22938328981399536,-0.07437577098608017
1695804840549197300,4.952197265625,-0.29739972949028015,-0.17896555364131927,-0.03123680129647255
1695804840559197400,4.962197509765625,-0.30254361033439636,-0.12306953966617584,0.008406482636928558
1695804840569196500,4.972196533203125,-0.28582963347435,-0.07407919317483902,0.04175782576203346
1695804840579195400,4.9821953125,-0.23927412927150726,-0.047028135508298874,0.06760913133621216
1695804840589195500,4.992195556640625,-0.18565137684345245,-0.054966218769550323,0.07217671722173691
1695804840599194600,5.002194580078125,-0.1324070692062378,-0.05735906958580017,0.07503828406333923
1695804840609194500,5.012194580078125,-0.080059714615345,-0.03541499003767967,0.12323152273893356
1695804840619193600,5.022193603515625,-0.0063673872500658035,-0.0401303805410862,0.20444168150424957
1695804840629192700,5.032192626953125,0.06924084573984146,-0.07304926961660385,0.29273611307144165
1695804840639192600,5.042192626953125,0.13853521645069122,-0.12329992651939392,0.3702005445957184
1695804840649191400,5.05219140625,0.20018437504768372,-0.16974131762981415,0.4178978502750397
1695804840659191600,5.062191650390625,0.2521764934062958,-0.20845437049865723,0.4154717028141022
1695804840669190400,5.0721904296875,0.2835383713245392,-0.2684374451637268,0.36436328291893005
1695804840679190300,5.082190185546875,0.25802236795425415,-0.3074093461036682,0.29603323340415955
1695804840689189400,5.092189453125,0.17877474427223206,-0.30745929479599,0.2406318038702011
1695804840699188500,5.1021884765625,0.09314239770174026,-0.29397332668304443,0.20327457785606384
1695804840709188400,5.112188232421875,0.036830998957157135,-0.27908629179000854,0.18835866451263428
1695804840719187500,5.1221875,0.006473892834037542,-0.25449681282043457,0.1863383948802948
1695804840729187600,5.1321875,-0.006596230436116457,-0.22328604757785797,0.1691623330116272
1695804840739186400,5.1421865234375,0.00001719733700156212,-0.20168541371822357,0.12038254737854004
1695804840749185500,5.152185546875,0.03359857201576233,-0.17348963022232056,0.04679703339934349
1695804840759185700,5.162185546875,0.08334988355636597,-0.1372850239276886,-0.056322161108255386
1695804840769184500,5.1721845703125,0.10767551511526108,-0.11612866818904877,-0.1419544219970703
1695804840779184600,5.1821845703125,0.09268457442522049,-0.13097819685935974,-0.15748971700668335
1695804840789183500,5.19218359375,0.050194915384054184,-0.19542844593524933,-0.09809815883636475
1695804840799183600,5.20218359375,0.01677889935672283,-0.2853628695011139,0.005501468200236559
1695804840809182500,5.212182373046875,-0.010295039042830467,-0.3495624363422394,0.10806138068437576
1695804840819181600,5.222181640625,-0.029696965590119362,-0.36460450291633606,0.18351565301418304
1695804840829181400,5.232181396484375,-0.045616522431373596,-0.33502325415611267,0.19543753564357758
1695804840839180500,5.2421806640625,-0.07366173714399338,-0.274920791387558,0.13900993764400482
1695804840849180400,5.252180419921875,-0.1235424131155014,-0.21456342935562134,0.03908328711986542
1695804840859179500,5.262179443359375,-0.1848750114440918,-0.1681527942419052,-0.0765511691570282
1695804840869178600,5.2721787109375,-0.22885718941688538,-0.15908712148666382,-0.18294811248779297
1695804840879178500,5.282178466796875,-0.24180547893047333,-0.1849410980939865,-0.2502448558807373
1695804840889177600,5.292177490234375,-0.22205772995948792,-0.24504053592681885,-0.2759249210357666
1695804840899177500,5.302177490234375,-0.1999199390411377,-0.34258171916007996,-0.266061395406723
1695804840909176600,5.312176513671875,-0.18701104819774628,-0.4297485053539276,-0.21808947622776031
1695804840919176700,5.3221767578125,-0.1832093894481659,-0.47029751539230347,-0.15793877840042114
1695804840929175300,5.33217529296875,-0.17613501846790314,-0.4901401400566101,-0.0868002399802208
1695804840939174400,5.34217431640625,-0.175153911113739,-0.6132436990737915,-0.04483627527952194
1695804840949174500,5.352174560546875,-0.18520841002464294,-0.8102030754089355,-0.0557728111743927
1695804840959173400,5.36217333984375,-0.21054679155349731,-1.0191941261291504,-0.09474284946918488
1695804840969173500,5.372173583984375,-0.24786843359470367,-1.1740916967391968,-0.1088646948337555
1695804840979172400,5.38217236328125,-0.309430330991745,-1.2577128410339355,-0.12483859807252884
1695804840989171500,5.39217138671875,-0.40727004408836365,-1.249050259590149,-0.1760990172624588
1695804840999171600,5.402171630859375,-0.5127410888671875,-1.1582136154174805,-0.2724950611591339
1695804841009170400,5.41217041015625,-0.5963544249534607,-1.0405762195587158,-0.38947075605392456
1695804841019170600,5.422170654296875,-0.6742995381355286,-0.901566743850708,-0.4929353892803192
1695804841029169700,5.432169677734375,-0.7406352758407593,-0.7535576224327087,-0.5571078658103943
1695804841039169500,5.44216943359375,-0.7741439938545227,-0.6111075282096863,-0.559899091720581
1695804841049168600,5.452168701171875,-0.7653189301490784,-0.458180695772171,-0.4887431859970093
1695804841059167500,5.46216748046875,-0.7316799759864807,-0.2743386924266815,-0.36762046813964844
1695804841069167400,5.47216748046875,-0.6923955678939819,-0.07070508599281311,-0.22286847233772278
1695804841079166500,5.48216650390625,-0.6466056704521179,0.13693837821483612,-0.06668579578399658
1695804841089166300,5.492166259765625,-0.5764425992965698,0.32867133617401123,0.09467194229364395
1695804841099165400,5.50216552734375,-0.49107205867767334,0.4995373487472534,0.2514146864414215
1695804841109164500,5.51216455078125,-0.3842637836933136,0.6187711954116821,0.391040176153183
1695804841119164400,5.522164306640625,-0.28286606073379517,0.649263322353363,0.4848873019218445
1695804841129163500,5.53216357421875,-0.19343754649162292,0.5415629744529724,0.5225019454956055
1695804841139163400,5.542163330078125,-0.14371579885482788,0.36379274725914,0.5082953572273254
1695804841149162200,5.552162353515625,-0.10786384344100952,0.17482464015483856,0.4582953155040741
1695804841159162600,5.56216259765625,-0.07353249937295914,-0.01147625595331192,0.3828314542770386
1695804841169161200,5.5721611328125,-0.0382094532251358,-0.15818201005458832,0.2915818989276886
1695804841179160300,5.582160400390625,0.009521585889160633,-0.24563941359519958,0.19117937982082367
1695804841189160400,5.592160400390625,0.06695669144392014,-0.28647729754447937,0.09355159103870392
1695804841199159300,5.6021591796875,0.10208272188901901,-0.28828319907188416,0.01677265577018261
1695804841209159400,5.612159423828125,0.1110822781920433,-0.22635431587696075,-0.02675345167517662
1695804841219158500,5.622158447265625,0.10960821807384491,-0.1358233541250229,-0.04714713990688324
1695804841229157400,5.632157470703125,0.10308422148227692,-0.014270486310124397,-0.020189108327031136
1695804841239157500,5.642157470703125,0.10079896450042725,0.11572612822055817,0.04378534480929375
1695804841249156400,5.65215625,0.09258744865655899,0.21722756326198578,0.10930316150188446
1695804841259156500,5.662156494140625,0.08500809222459793,0.2876332998275757,0.15926779806613922
1695804841269155600,5.672155517578125,0.08805709332227707,0.32914191484451294,0.18357011675834656
1695804841279155500,5.682155517578125,0.1171092540025711,0.3428089916706085,0.18254080414772034
1695804841289154300,5.692154296875,0.1774573028087616,0.3355806767940521,0.16992631554603577
1695804841299153400,5.7021533203125,0.25910821557044983,0.2901279628276825,0.16647405922412872
1695804841309153300,5.7121533203125,0.3603680431842804,0.20417170226573944,0.17944106459617615
1695804841319152400,5.72215234375,0.45095041394233704,0.12144593149423599,0.2117108553647995
1695804841329152300,5.73215234375,0.5182221531867981,0.10816840082406998,0.2733932137489319
1695804841339151400,5.7421513671875,0.5488762259483337,0.14090050756931305,0.3409743905067444
1695804841349150500,5.752150390625,0.5543832778930664,0.19083517789840698,0.40931883454322815
1695804841359150300,5.762150390625,0.539557695388794,0.22377634048461914,0.46494293212890625
1695804841369149400,5.7721494140625,0.5018106698989868,0.23549136519432068,0.48432642221450806
1695804841379149300,5.7821494140625,0.4673605263233185,0.24564066529273987,0.47056081891059875
1695804841389148400,5.7921484375,0.4580002427101135,0.24252259731292725,0.4254607856273651
1695804841399147500,5.8021474609375,0.4593579173088074,0.22467835247516632,0.343913733959198
1695804841409147400,5.8121474609375,0.4742191731929779,0.18527838587760925,0.24178935587406158
1695804841419146200,5.822146240234375,0.49327436089515686,0.1796356737613678,0.1460319459438324
1695804841429146400,5.832146484375,0.514897346496582,0.22455966472625732,0.0796341523528099
1695804841439145200,5.842145263671875,0.5213909149169922,0.31751516461372375,0.041367728263139725
1695804841449145300,5.852145263671875,0.5046635270118713,0.4129675626754761,0.018382828682661057
1695804841459144400,5.86214453125,0.4677034020423889,0.49462994933128357,0.0014789459528401494
1695804841469143300,5.872143310546875,0.4265435039997101,0.5555652379989624,-0.00985952839255333
1695804841479143400,5.882143310546875,0.39109551906585693,0.5662117600440979,-0.024225950241088867
1695804841489142500,5.892142578125,0.37575966119766235,0.5118858814239502,-0.04064470902085304
1695804841499142400,5.902142333984375,0.37573012709617615,0.4147507846355438,-0.03165600821375847
1695804841509141500,5.9121416015625,0.3877328634262085,0.29513922333717346,0.009175456129014492
1695804841519140600,5.922140625,0.40226438641548157,0.18479381501674652,0.0795004814863205
1695804841529140500,5.932140380859375,0.4083115756511688,0.11265907436609268,0.13872763514518738
1695804841539139600,5.9421396484375,0.41318783164024353,0.0805291011929512,0.17296229302883148
1695804841549139500,5.952139404296875,0.4148828685283661,0.08404667675495148,0.18999207019805908
1695804841559138300,5.96213818359375,0.4165092706680298,0.11351215839385986,0.2070637345314026
1695804841569138200,5.97213818359375,0.4083176553249359,0.15264730155467987,0.21650835871696472
1695804841579137300,5.98213720703125,0.38272786140441895,0.2045171558856964,0.1973855346441269
1695804841589136400,5.992136474609375,0.34662526845932007,0.2691543698310852,0.14888818562030792
1695804841599136300,6.00213623046875,0.3108166456222534,0.3195914626121521,0.07001680135726929
1695804841609135400,6.01213525390625,0.27910250425338745,0.3295130133628845,-0.02942214533686638
1695804841619135500,6.022135498046875,0.24781036376953125,0.29553478956222534,-0.1477525234222412
1695804841629134300,6.03213427734375,0.22995121777057648,0.25816160440444946,-0.24598294496536255
1695804841639134500,6.042134521484375,0.2591516971588135,0.23731198906898499,-0.30458715558052063
1695804841649133600,6.052133544921875,0.31086423993110657,0.20303010940551758,-0.33134517073631287
1695804841659132400,6.06213232421875,0.33373013138771057,0.17056484520435333,-0.3454276919364929
1695804841669132500,6.072132568359375,0.3217185139656067,0.16926665604114532,-0.3617246747016907
1695804841679131400,6.08213134765625,0.2926844656467438,0.19184520840644836,-0.38760074973106384
1695804841689131500,6.092131591796875,0.26902860403060913,0.2943413555622101,-0.38628149032592773
1695804841699130400,6.10213037109375,0.26973435282707214,0.4734083116054535,-0.33229148387908936
1695804841709129200,6.112129150390625,0.30863508582115173,0.5056946873664856,-0.2728564739227295
1695804841719129300,6.12212939453125,0.3405453562736511,0.4667166471481323,-0.2517293691635132
1695804841729128400,6.13212841796875,0.37387821078300476,0.4511701166629791,-0.2385123074054718
1695804841739128300,6.14212841796875,0.4412250220775604,0.44028177857398987,-0.22125104069709778
1695804841749127400,6.15212744140625,0.5115428566932678,0.4338129460811615,-0.20826385915279388
1695804841759127300,6.162127197265625,0.5812947750091553,0.42074668407440186,-0.17949239909648895
1695804841769126400,6.17212646484375,0.6654011011123657,0.35123899579048157,-0.1427876502275467
1695804841779125500,6.18212548828125,0.752797544002533,0.23513448238372803,-0.09769100695848465
1695804841789125400,6.19212548828125,0.8139975070953369,0.12270857393741608,-0.039916496723890305
1695804841799124500,6.20212451171875,0.8397966623306274,0.03383117541670799,0.026451608166098595
1695804841809124400,6.212124267578125,0.8249629139900208,-0.0025833421386778355,0.09555230289697647
1695804841819123500,6.22212353515625,0.7867180705070496,0.015652919188141823,0.15124724805355072
1695804841829122300,6.232122314453125,0.7473106980323792,0.07983235269784927,0.17768655717372894
1695804841839122200,6.2421220703125,0.7361406087875366,0.20247384905815125,0.15280598402023315
1695804841849121300,6.252121337890625,0.7447578310966492,0.370633065700531,0.08610136061906815
1695804841859121400,6.262121337890625,0.779289722442627,0.5652245879173279,-0.002384828869253397
1695804841869120300,6.272120361328125,0.8330045342445374,0.696076512336731,-0.08270896971225739
1695804841879120400,6.282120361328125,0.8779818415641785,0.7363048791885376,-0.13497111201286316
1695804841889119500,6.292119384765625,0.9237874746322632,0.70816969871521,-0.137985497713089
1695804841899118300,6.302118408203125,0.9737539887428284,0.6412932276725769,-0.08156882971525192
1695804841909118500,6.312118408203125,1.0368571281433105,0.5732964277267456,0.046894997358322144
1695804841919117600,6.32211767578125,1.0987212657928467,0.48818469047546387,0.20486438274383545
1695804841929117400,6.332117431640625,1.1460248231887817,0.3885818421840668,0.36383378505706787
1695804841939116500,6.342116455078125,1.1632765531539917,0.2976900339126587,0.48943883180618286
1695804841949115400,6.352115478515625,1.154663324356079,0.22021688520908356,0.556537389755249
1695804841959115500,6.362115478515625,1.1289204359054565,0.17596659064292908,0.5578697323799133
1695804841969114400,6.3721142578125,1.1026867628097534,0.16355280578136444,0.5094174742698669
1695804841979114200,6.3821142578125,1.0993142127990723,0.17723533511161804,0.41339820623397827
1695804841989113300,6.39211328125,1.1191097497940063,0.20267993211746216,0.29813826084136963
1695804841999112400,6.402112548828125,1.1454188823699951,0.24333149194717407,0.18941977620124817
1695804842009112300,6.4121123046875,1.175357460975647,0.29794639348983765,0.10616915673017502
1695804842019111400,6.422111328125,1.2062900066375732,0.31967273354530334,0.054283320903778076
1695804842029111300,6.432111328125,1.2149837017059326,0.31798678636550903,0.035558801144361496
1695804842039110400,6.4421103515625,1.2000279426574707,0.2913559675216675,0.049510836601257324
1695804842049110500,6.452110595703125,1.1618484258651733,0.23912610113620758,0.0703427642583847
1695804842059109400,6.462109375,1.1039178371429443,0.19421055912971497,0.10813115537166595
1695804842069108500,6.4721083984375,1.0326787233352661,0.17666813731193542,0.13806839287281036
1695804842079108400,6.4821083984375,0.9663375616073608,0.19055946171283722,0.14236167073249817
1695804842089107500,6.492107421875,0.9168994426727295,0.26967310905456543,0.11369043588638306
1695804842099107600,6.502107666015625,0.9058252573013306,0.3834478557109833,0.04728131368756294
1695804842109106400,6.5121064453125,0.9335694313049316,0.5062767863273621,-0.05433962121605873
1695804842119106600,6.5221064453125,0.9957558512687683,0.6084372401237488,-0.16205942630767822
1695804842129105700,6.532105712890625,1.0588403940200806,0.6744716763496399,-0.2417055070400238
1695804842139104500,6.5421044921875,1.104712963104248,0.6932997107505798,-0.27428022027015686
1695804842149104600,6.552104736328125,1.1231329441070557,0.6664243936538696,-0.2507983446121216
1695804842159103500,6.562103515625,1.1265019178390503,0.6015815138816833,-0.1754029393196106
1695804842169103400,6.572103271484375,1.123691201210022,0.5006513595581055,-0.06482839584350586
1695804842179102500,6.5821025390625,1.122252345085144,0.3888002038002014,0.06170583888888359
1695804842189101600,6.5921015625,1.121447205543518,0.2988758087158203,0.18345123529434204
1695804842199101400,6.602101318359375,1.1213395595550537,0.24058933556079865,0.26576074957847595
1695804842209100500,6.6121005859375,1.1101430654525757,0.2227308452129364,0.28301653265953064
1695804842219100400,6.622100341796875,1.1013327836990356,0.23350226879119873,0.24125923216342926
1695804842229099500,6.632099609375,1.0953975915908813,0.2669019103050232,0.15570874512195587
1695804842239099400,6.642099365234375,1.0900814533233643,0.29517245292663574,0.059822432696819305
1695804842249098500,6.652098388671875,1.0852147340774536,0.29777827858924866,-0.016858045011758804
1695804842259097600,6.66209765625,1.076459527015686,0.265398770570755,-0.05340487137436867
1695804842269097500,6.672097412109375,1.0460638999938965,0.19095779955387115,-0.05552948638796806
1695804842279096600,6.6820966796875,1.0006705522537231,0.11891581863164902,-0.023624280467629433
1695804842289096700,6.6920966796875,0.9531242847442627,0.05466128885746002,0.03108932077884674
1695804842299095300,6.70209521484375,0.924784779548645,0.01505821943283081,0.10663200914859772
1695804842309094400,6.712094482421875,0.8997389078140259,-0.002393991220742464,0.1745869219303131
1695804842319094500,6.722094482421875,0.8714340329170227,0.00865439884364605,0.21831975877285004
1695804842329093400,6.73209326171875,0.8489092588424683,0.036540452390909195,0.23881381750106812
1695804842339093500,6.742093505859375,0.8353785276412964,0.052910905331373215,0.25090643763542175
1695804842349092600,6.752092529296875,0.8181509375572205,0.043024659156799316,0.26222488284111023
1695804842359092500,6.762092529296875,0.8028401732444763,-0.0003209509886801243,0.27282798290252686
1695804842369091600,6.772091552734375,0.7826146483421326,-0.06841572374105453,0.2911834716796875
1695804842379090400,6.78209033203125,0.7606049180030823,-0.1408664733171463,0.31880950927734375
1695804842389090600,6.792090576171875,0.7298203706741333,-0.23845481872558594,0.3564969599246979
1695804842399089700,6.802089599609375,0.6780741214752197,-0.35990163683891296,0.40876442193984985
1695804842409089500,6.812089599609375,0.6005043387413025,-0.4952024817466736,0.4890972077846527
1695804842419088600,6.822088623046875,0.5211442708969116,-0.6441437602043152,0.5915969610214233
1695804842429087500,6.83208740234375,0.452595055103302,-0.7831010222434998,0.6904757618904114
1695804842439087400,6.84208740234375,0.39833101630210876,-0.8921045064926147,0.7524487972259521
1695804842449086500,6.85208642578125,0.35449209809303284,-0.9321377873420715,0.7408143877983093
1695804842459086300,6.86208642578125,0.3518902063369751,-0.8676485419273376,0.6708166599273682
1695804842469085400,6.87208544921875,0.39974653720855713,-0.7341151833534241,0.567203938961029
1695804842479085600,6.88208544921875,0.46957170963287354,-0.5864543318748474,0.4329265356063843
1695804842489084400,6.89208447265625,0.5419121980667114,-0.42075398564338684,0.2731480896472931
1695804842499083500,6.90208349609375,0.6032181978225708,-0.21744799613952637,0.10975969582796097
1695804842509083400,6.91208349609375,0.6752581000328064,-0.1225283145904541,-0.055163055658340454
1695804842519082500,6.92208251953125,0.7615165710449219,-0.1874724179506302,-0.22363755106925964
1695804842529082600,6.93208251953125,0.8547412753105164,-0.3395389914512634,-0.37582385540008545
1695804842539081500,6.94208154296875,0.935914158821106,-0.5119422078132629,-0.45273247361183167
1695804842549080300,6.952080322265625,0.9566723704338074,-0.6822040677070618,-0.44680941104888916
1695804842559080700,6.962080810546875,0.9089812636375427,-0.7922376394271851,-0.3945920169353485
1695804842569079300,6.972079345703125,0.8099231719970703,-0.8193955421447754,-0.31919315457344055
1695804842579079400,6.982079345703125,0.7120496034622192,-0.7076796889305115,-0.2392069697380066
1695804842589078500,6.99207861328125,0.6650709509849548,-0.4928942322731018,-0.18546998500823975
1695804842599078400,7.002078369140625,0.674096941947937,-0.2291792333126068,-0.15235251188278198
1695804842609077500,7.012077392578125,0.703900933265686,0.02809334173798561,-0.12610580027103424
1695804842619076600,7.02207666015625,0.7309378981590271,0.23286592960357666,-0.1097654327750206
1695804842629076500,7.032076416015625,0.7482133507728577,0.34577661752700806,-0.11100726574659348
1695804842639075600,7.04207568359375,0.7538089156150818,0.40600642561912537,-0.10340527445077896
1695804842649075500,7.052075439453125,0.7456682324409485,0.42472800612449646,-0.060809217393398285
1695804842659074600,7.062074462890625,0.7502738833427429,0.4325409233570099,0.03488508239388466
1695804842669073700,7.07207373046875,0.7616294026374817,0.4413182735443115,0.16524943709373474
1695804842679073500,7.082073486328125,0.7786083817481995,0.46138331294059753,0.316794216632843
1695804842689072600,7.09207275390625,0.7835699319839478,0.497296541929245,0.46903401613235474
1695804842699072500,7.102072509765625,0.7806537747383118,0.5407566428184509,0.5905905365943909
1695804842709071400,7.1120712890625,0.7612041234970093,0.5666924715042114,0.6673260927200317
1695804842719071500,7.122071533203125,0.7453271746635437,0.5789110660552979,0.701515257358551
1695804842729070300,7.1320703125,0.7425402998924255,0.5743433237075806,0.7049369812011719
1695804842739069400,7.1420693359375,0.7405914068222046,0.5502622127532959,0.6865918040275574
1695804842749069600,7.152069580078125,0.7366765737533569,0.5000895857810974,0.6642756462097168
1695804842759068400,7.162068359375,0.7236550450325012,0.42506834864616394,0.6375928521156311
1695804842769068500,7.172068603515625,0.7146705389022827,0.3868614435195923,0.6159803867340088
1695804842779067400,7.1820673828125,0.7155837416648865,0.40794968605041504,0.6043937802314758
1695804842789066500,7.19206640625,0.7234986424446106,0.47192326188087463,0.5975369811058044
1695804842799066600,7.202066650390625,0.7172612547874451,0.5603918433189392,0.5893738269805908
1695804842809065500,7.2120654296875,0.69658362865448,0.6440837383270264,0.5864266753196716
1695804842819065600,7.222065673828125,0.6694121956825256,0.7165659666061401,0.5893244743347168
1695804842829064700,7.232064697265625,0.6559881567955017,0.7615142464637756,0.60551518201828
1695804842839064600,7.242064697265625,0.6514578461647034,0.793773353099823,0.6308351755142212
1695804842849063400,7.2520634765625,0.6514959931373596,0.8169676661491394,0.6639686822891235
1695804842859062500,7.2620625,0.6572833061218262,0.8360955715179443,0.6831402778625488
1695804842869062400,7.2720625,0.6707397103309631,0.8558419346809387,0.6885116696357727
1695804842879061500,7.2820615234375,0.6994360685348511,0.8696794509887695,0.6749183535575867
1695804842889061400,7.292061279296875,0.7380111813545227,0.9004386067390442,0.6533991694450378
1695804842899060500,7.302060546875,0.7907060980796814,0.9201851487159729,0.628811240196228
1695804842909059600,7.3120595703125,0.8429638743400574,0.9331650137901306,0.6100341081619263
1695804842919059500,7.3220595703125,0.8730762600898743,0.9372042417526245,0.6005218625068665
1695804842929058600,7.33205859375,0.8944560885429382,0.9479659795761108,0.6022042632102966
1695804842939058400,7.342058349609375,0.9093892574310303,0.9485691785812378,0.6062712073326111
1695804842949057500,7.3520576171875,0.9209666848182678,0.9234492778778076,0.6101450324058533
1695804842959057700,7.3620576171875,0.9238178730010986,0.8539466261863708,0.6149568557739258
1695804842969056500,7.372056396484375,0.9274340271949768,0.7623619437217712,0.6025798320770264
1695804842979055400,7.382055419921875,0.9490583539009094,0.6989006400108337,0.5822117328643799
1695804842989055500,7.392055419921875,0.9857069253921509,0.6854715943336487,0.5589643120765686
1695804842999054300,7.402054443359375,1.0171245336532593,0.7040578126907349,0.5394155979156494
1695804843009054500,7.412054443359375,1.0204784870147705,0.7446227073669434,0.5414197444915771
1695804843019053600,7.422053466796875,1.017158031463623,0.7446587085723877,0.5617694854736328
1695804843029052400,7.432052490234375,1.0435277223587036,0.7232832312583923,0.5630353689193726
1695804843039052500,7.442052490234375,1.0924897193908691,0.6760978698730469,0.5277005434036255
1695804843049051600,7.4520517578125,1.1732271909713745,0.6176130771636963,0.43243056535720825
1695804843059051500,7.462051513671875,1.293351173400879,0.548902690410614,0.29060685634613037
1695804843069050600,7.472050537109375,1.4343445301055908,0.4840877950191498,0.0987023264169693
1695804843079050500,7.482050537109375,1.5678354501724243,0.4156014025211334,-0.11755061149597168
1695804843089049600,7.492049560546875,1.6809718608856201,0.3520253300666809,-0.3079313635826111
1695804843099048700,7.502048583984375,1.763454794883728,0.27315956354141235,-0.43379342555999756
1695804843109048600,7.512048583984375,1.7654788494110107,0.2045721858739853,-0.4662202000617981
1695804843119047700,7.522047607421875,1.6822068691253662,0.1885673850774765,-0.3857967257499695
1695804843129047600,7.532047607421875,1.5589646100997925,0.2144153118133545,-0.2194869965314865
1695804843139046700,7.542046630859375,1.4481494426727295,0.2674396336078644,0.00012898462591692805
1695804843149045800,7.552045654296875,1.3822801113128662,0.35513976216316223,0.2143828123807907
1695804843159045600,7.562045654296875,1.342997431755066,0.4555811583995819,0.35103651881217957
1695804843169044700,7.572044677734375,1.3169713020324707,0.5749639868736267,0.39273226261138916
1695804843179044600,7.582044677734375,1.3185042142868042,0.6821175813674927,0.3921471834182739
1695804843189043500,7.59204345703125,1.3396929502487183,0.7227418422698975,0.38070327043533325
1695804843199043600,7.602043701171875,1.354886770248413,0.703499436378479,0.38655075430870056
1695804843209042400,7.61204248046875,1.3516080379486084,0.6304388642311096,0.4211975038051605
1695804843219041500,7.62204150390625,1.3393433094024658,0.5478081107139587,0.4841676950454712
1695804843229041700,7.632041748046875,1.3183571100234985,0.4806436598300934,0.5699362754821777
1695804843239040500,7.64204052734375,1.2814949750900269,0.4534570276737213,0.660780668258667
1695804843249040600,7.65204052734375,1.2240182161331177,0.49607473611831665,0.7345799207687378
1695804843259039700,7.662039794921875,1.1532912254333496,0.6133055090904236,0.7852486968040466
1695804843269038600,7.67203857421875,1.0885709524154663,0.7701241374015808,0.7972618341445923
1695804843279038700,7.682038818359375,1.0443832874298096,0.9213536381721497,0.7483387589454651
1695804843289037800,7.692037841796875,1.010191798210144,1.053262710571289,0.6370536684989929
1695804843299037700,7.70203759765625,0.9863495230674744,1.1467188596725464,0.5026889443397522
1695804843309036800,7.712036865234375,0.968242347240448,1.1736220121383667,0.3777567744255066
1695804843319036700,7.72203662109375,0.9620987176895142,1.1556406021118164,0.2986305058002472
1695804843329035500,7.732035400390625,0.9658442735671997,1.1094807386398315,0.2800239026546478
1695804843339034600,7.74203466796875,0.9898214936256409,1.0305523872375488,0.30415159463882446
1695804843349034500,7.752034423828125,1.016573190689087,0.9697518348693848,0.3598417341709137
1695804843359033600,7.76203369140625,1.060430884361267,0.9483572840690613,0.4403799772262573
1695804843369033500,7.772033447265625,1.095876693725586,0.9929541945457458,0.5491765141487122
1695804843379032600,7.782032470703125,1.115832805633545,1.092365026473999,0.6842379570007324
1695804843389031700,7.79203173828125,1.136370062828064,1.0471422672271729,0.7996188402175903
1695804843399031600,7.802031494140625,1.1298288106918335,0.8841434717178345,0.8287757039070129
1695804843409030700,7.81203076171875,1.10422945022583,0.7331239581108093,0.7705545425415039
1695804843419030800,7.82203076171875,1.0885801315307617,0.6097056269645691,0.6540377736091614
1695804843429029600,7.832029541015625,1.105498194694519,0.5287566184997559,0.5014525055885315
1695804843439029800,7.84202978515625,1.1403405666351318,0.4647044241428375,0.30443769693374634
1695804843449028600,7.852028564453125,1.1683915853500366,0.4674309194087982,0.08052625507116318
1695804843459027500,7.86202734375,1.206096887588501,0.5600658059120178,-0.12169183045625687
1695804843469027600,7.872027587890625,1.2557461261749268,0.7062298059463501,-0.27983829379081726
1695804843479026400,7.8820263671875,1.3002406358718872,0.8717844486236572,-0.37807217240333557
1695804843489026600,7.892026611328125,1.3213748931884766,1.0341049432754517,-0.40885815024375916
1695804843499025700,7.902025634765625,1.3107839822769165,1.1484118700027466,-0.3702439069747925
1695804843509024500,7.9120244140625,1.2664377689361572,1.205610752105713,-0.2864156663417816
1695804843519024600,7.922024658203125,1.2285714149475098,1.2468717098236084,-0.19577285647392273
1695804843529023700,7.932023681640625,1.2210633754730225,1.3183882236480713,-0.1294371485710144
1695804843539023600,7.942023681640625,1.2663530111312866,1.3709361553192139,-0.12660327553749084
1695804843549022700,7.952022705078125,1.358698844909668,1.3955916166305542,-0.16329415142536163
1695804843559022600,7.962022705078125,1.483246922492981,1.4122730493545532,-0.2035001665353775
1695804843569021700,7.972021728515625,1.6200121641159058,1.3654674291610718,-0.24478793144226074
1695804843579020500,7.9820205078125,1.7376458644866943,1.2412426471710205,-0.27651602029800415
1695804843589020700,7.992020751953125,1.8370486497879028,1.0793042182922363,-0.25550922751426697
1695804843599019500,8.00201953125,1.9067732095718384,0.8624245524406433,-0.18959252536296844
1695804843609019400,8.012019287109375,1.9477566480636597,0.6251996159553528,-0.08689553290605545
1695804843619018500,8.0220185546875,1.95348060131073,0.42540714144706726,0.021673817187547684
1695804843629017600,8.032017578125,1.9349400997161865,0.2741013169288635,0.11150375753641129
1695804843639017500,8.042017578125,1.9182947874069214,0.20997826755046844,0.1686333566904068
1695804843649016600,8.0520166015625,1.9235488176345825,0.20647656917572021,0.19715523719787598
1695804843659016700,8.0620166015625,1.9333246946334839,0.2282593697309494,0.19481830298900604
1695804843669015600,8.072015625,1.9278358221054077,0.23299947381019592,0.16596899926662445
1695804843679015700,8.082015625,1.902048945426941,0.2082056999206543,0.13440868258476257
1695804843689014800,8.092014892578124,1.866791009902954,0.16414588689804077,0.11419643461704254
1695804843699013600,8.102013671875,1.8213838338851929,0.11185657978057861,0.1050223782658577
1695804843709013800,8.112013671875,1.7683346271514893,0.10785748064517975,0.1153043583035469
1695804843719012600,8.1220126953125,1.7323215007781982,0.16330423951148987,0.14522656798362732
1695804843729012700,8.1320126953125,1.70903742313385,0.2709517478942871,0.17860214412212372
1695804843739011600,8.142011474609374,1.7005627155303955,0.4028397500514984,0.22392170131206512
1695804843749011500,8.152011474609376,1.6948459148406982,0.5173491835594177,0.28532761335372925
1695804843759010600,8.162010498046875,1.6654480695724487,0.6053807735443115,0.3570398986339569
1695804843769009700,8.172009765625,1.6231167316436768,0.6511884927749634,0.4318588078022003
1695804843779009500,8.182009521484375,1.5801751613616943,0.6737585067749023,0.509183406829834
1695804843789008600,8.192008544921874,1.5654999017715454,0.7078696489334106,0.5777799487113953
1695804843799008500,8.202008544921876,1.5632543563842773,0.7213577628135681,0.6238741874694824
1695804843809007600,8.212007568359375,1.5513546466827393,0.7188924551010132,0.6459291577339172
1695804843819006700,8.2220068359375,1.5367686748504639,0.7119213938713074,0.6582226157188416
1695804843829006600,8.232006591796875,1.5201109647750854,0.7070139050483704,0.6342082619667053
1695804843839005700,8.242005615234374,1.5085208415985107,0.6946219205856323,0.5650094747543335
1695804843849005800,8.252005859375,1.499594807624817,0.6764969825744629,0.4704521596431732
1695804843859004400,8.26200439453125,1.500261664390564,0.6572513580322266,0.3899884819984436
1695804843869004800,8.2720048828125,1.510866403579712,0.6187912225723267,0.33572283387184143
1695804843879003600,8.282003662109375,1.5124109983444214,0.570869505405426,0.32831522822380066
1695804843889002500,8.29200244140625,1.5082288980484009,0.5450133085250854,0.37902796268463135
1695804843899002600,8.302002685546874,1.5087448358535767,0.5070323944091797,0.45531073212623596
1695804843909001500,8.31200146484375,1.5180432796478271,0.46747297048568726,0.5361676216125488
1695804843919001600,8.322001708984375,1.5354787111282349,0.4347451329231262,0.6242772340774536
1695804843929000700,8.332000732421875,1.5313743352890015,0.37713202834129333,0.6946236491203308
1695804843938999600,8.34199951171875,1.5026968717575073,0.3252139687538147,0.7331821918487549
1695804843948999700,8.351999755859374,1.465435266494751,0.2846204936504364,0.7464979290962219
1695804843958998800,8.361998779296876,1.4217448234558105,0.2613047659397125,0.7376940846443176
1695804843968998700,8.37199853515625,1.370995283126831,0.26647496223449707,0.7081055045127869
1695804843978997800,8.381997802734375,1.333107590675354,0.2817865312099457,0.6605063080787659
1695804843988996600,8.39199658203125,1.3099632263183594,0.3264557421207428,0.6084052324295044
1695804843998996700,8.401996826171874,1.3043956756591797,0.36736002564430237,0.5607812404632568
1695804844008995600,8.41199560546875,1.2917022705078125,0.3782831132411957,0.5200188159942627
1695804844018995500,8.421995361328126,1.2701653242111206,0.3749086260795593,0.4955030679702759
1695804844028994600,8.43199462890625,1.225171446800232,0.386830598115921,0.48280957341194153
1695804844038994400,8.441994384765625,1.1548032760620117,0.41923993825912476,0.4586499035358429
1695804844048993500,8.45199365234375,1.0699326992034912,0.43306270241737366,0.4206065833568573
1695804844058992600,8.46199267578125,0.9912227988243103,0.45343533158302307,0.384242981672287
1695804844068992500,8.471992431640626,0.928092896938324,0.48157450556755066,0.35200098156929016
1695804844078992000,8.481991943359375,0.889092743396759,0.4615134298801422,0.31387490034103394
1695804844088992000,8.491991943359375,0.8816727995872498,0.4113794267177582,0.2891058623790741
1695804844098990800,8.501990966796875,0.8952560424804688,0.37249088287353516,0.30218571424484253
1695804844108990000,8.511989990234374,0.9019947052001953,0.33827346563339233,0.33956676721572876
1695804844118989800,8.52198974609375,0.8680189251899719,0.30468034744262695,0.36068883538246155
1695804844128989000,8.531989013671875,0.8120632171630859,0.2895270884037018,0.36695873737335205
1695804844138989000,8.541989013671875,0.7599137425422668,0.2931535243988037,0.3665190637111664
1695804844148988000,8.55198779296875,0.7138286232948303,0.29443395137786865,0.3565497100353241
1695804844158988000,8.561988037109375,0.6439371705055237,0.3376868665218353,0.3437918424606323
1695804844168987100,8.571987060546874,0.5377886891365051,0.4124564826488495,0.3416297137737274
1695804844178986000,8.581986083984376,0.4508577287197113,0.5118780732154846,0.3637339472770691
1695804844188986000,8.591986083984375,0.372714638710022,0.5471614003181458,0.36793360114097595
1695804844198985200,8.601985107421875,0.2707797586917877,0.5063678622245789,0.32964426279067993
1695804844208985000,8.611985107421875,0.16586852073669434,0.4132358431816101,0.24892118573188782
1695804844218984000,8.62198388671875,0.08113684505224228,0.39561450481414795,0.13483642041683197
1695804844228983000,8.631983154296876,0.022638842463493347,0.4600639343261719,-0.006402784958481789
1695804844238983000,8.64198291015625,0.01614578813314438,0.6109373569488525,-0.130769744515419
1695804844248982000,8.65198193359375,0.026405446231365204,0.828250527381897,-0.2243337482213974
1695804844258982000,8.66198193359375,0.0623522587120533,1.0149905681610107,-0.29703617095947266
1695804844268981000,8.67198095703125,0.08661823719739914,1.1288747787475586,-0.3512672483921051
1695804844278980900,8.68198095703125,0.10238015651702881,1.1531082391738892,-0.3570827841758728
1695804844288980000,8.69197998046875,0.09952490776777267,1.079257607460022,-0.32047224044799805
1695804844298979000,8.70197900390625,0.10496281832456589,0.9711217284202576,-0.25174883008003235
1695804844308979000,8.71197900390625,0.18031595647335052,0.8482164740562439,-0.2159218043088913
1695804844318978000,8.72197802734375,0.30931681394577026,0.6898713111877441,-0.2359279990196228
1695804844328978200,8.731978271484374,0.43731239438056946,0.5987922549247742,-0.2656252384185791
1695804844338977000,8.74197705078125,0.5520772933959961,0.5294384956359863,-0.2910110354423523
1695804844348975900,8.751975830078125,0.6520370841026306,0.4855405390262604,-0.28811922669410706
1695804844358976000,8.76197607421875,0.7227639555931091,0.5122097134590149,-0.20905928313732147
1695804844368974800,8.771974853515625,0.7589535117149353,0.5393445491790771,-0.07103510200977325
1695804844378975000,8.78197509765625,0.7920611500740051,0.5091001391410828,0.08716040104627609
1695804844388973800,8.791973876953126,0.815375030040741,0.43061137199401855,0.23903906345367432
1695804844398974000,8.801973876953125,0.8347495794296265,0.3230082094669342,0.3808020353317261
1695804844408973000,8.81197314453125,0.8328632712364197,0.24806417524814606,0.5032293200492859
1695804844418972000,8.821971923828125,0.8267555236816406,0.24016496539115906,0.5891420841217041
1695804844428972000,8.831971923828124,0.8595922589302063,0.2680993676185608,0.6235144138336182
1695804844438971100,8.84197119140625,0.9088940024375916,0.2781863510608673,0.5893154740333557
1695804844448971000,8.851970947265626,0.9431596398353577,0.2957818806171417,0.5265639424324036
1695804844458970000,8.86197021484375,0.9372812509536743,0.3313918113708496,0.46467500925064087
1695804844468969200,8.87196923828125,0.8868971467018127,0.29230085015296936,0.39798134565353394
1695804844478969000,8.881968994140625,0.8113211393356323,0.1649855077266693,0.34806200861930847
1695804844488968000,8.891968017578124,0.7355380654335022,0.0036660567857325077,0.32083660364151
1695804844498967800,8.9019677734375,0.6548642516136169,-0.17635831236839294,0.3040908873081207
1695804844508967000,8.911966796875,0.5873371362686157,-0.3112150728702545,0.3200274705886841
1695804844518967000,8.921967041015625,0.5539155602455139,-0.3211185932159424,0.3669007122516632
1695804844528966000,8.9319658203125,0.5674036145210266,-0.18907321989536285,0.40354135632514954
1695804844538965000,8.941965087890624,0.6357533931732178,-0.0037970994599163532,0.3792165517807007
1695804844548964900,8.95196484375,0.7346934676170349,0.20777949690818787,0.3081434965133667
1695804844558964000,8.9619638671875,0.8402750492095947,0.39881017804145813,0.22534076869487762
1695804844568964000,8.971964111328125,0.9188637137413025,0.5462722778320312,0.1647690385580063
1695804844578963000,8.981962890625,0.9175888299942017,0.6220487952232361,0.1259412169456482
1695804844588962000,8.991962158203124,0.8440567255020142,0.5912613272666931,0.11307670176029205
1695804844598962200,9.001962158203124,0.7330687046051025,0.51244056224823,0.13617749512195587
1695804844608961000,9.0119609375,0.62434321641922,0.4160126745700836,0.1948874443769455
1695804844618961200,9.021961181640625,0.5438212156295776,0.35507553815841675,0.26046615839004517
1695804844628960000,9.0319599609375,0.5082330107688904,0.30978915095329285,0.3290322721004486
1695804844638959900,9.0419599609375,0.48391541838645935,0.3068048357963562,0.37303516268730164
1695804844648959000,9.051958984375,0.46531572937965393,0.35678574442863464,0.3603028953075409
1695804844658958000,9.0619580078125,0.47719475626945496,0.4348160922527313,0.29475104808807373
1695804844668958000,9.0719580078125,0.5103575587272644,0.5801655650138855,0.18548111617565155
1695804844678957000,9.08195703125,0.5361747741699219,0.7074279189109802,0.06847275048494339
1695804844688957000,9.09195703125,0.5482499003410339,0.7812897562980652,-0.02043868601322174
1695804844698956000,9.1019560546875,0.5370049476623535,0.7571188807487488,-0.058794599026441574
1695804844708955100,9.111955078125,0.4861438274383545,0.5747172236442566,-0.050094109028577805
1695804844718955000,9.121955078125,0.378256231546402,0.31656908988952637,0.002568300813436508
1695804844728954000,9.1319541015625,0.27688291668891907,0.13242176175117493,0.08031885325908661
1695804844738954000,9.1419541015625,0.21823742985725403,0.05894992873072624,0.141351580619812
1695804844748953000,9.151953125,0.19346396625041962,0.10378897190093994,0.14408619701862335
1695804844758953200,9.161953125,0.224421888589859,0.20085586607456207,0.0813373327255249
1695804844768951800,9.171951904296876,0.32887232303619385,0.3244391083717346,-0.017242692410945892
1695804844778951000,9.181950927734375,0.4255562424659729,0.4205382168292999,-0.11139316111803055
1695804844788951000,9.191950927734375,0.45554134249687195,0.36281582713127136,-0.16939164698123932
1695804844798950000,9.201949951171875,0.39698508381843567,0.12579874694347382,-0.15507662296295166
1695804844808950000,9.211949951171874,0.2703292667865753,-0.20030902326107025,-0.04740700498223305
1695804844818948900,9.221948974609376,0.12123218923807144,-0.5340084433555603,0.13076353073120117
1695804844828948000,9.231947998046875,0.035080548375844955,-0.8175683617591858,0.31732645630836487
1695804844838948000,9.241947998046875,0.08482466638088226,-1.0713961124420166,0.392560750246048
1695804844848947000,9.251947021484375,0.27765974402427673,-1.196918249130249,0.2945042848587036
1695804844858947000,9.261947021484374,0.5180741548538208,-0.9556800723075867,0.10080325603485107
1695804844868946200,9.2719462890625,0.7372428774833679,-0.5524705052375793,-0.06748590618371964
1695804844878946000,9.281946044921876,0.8657596111297607,-0.314369261264801,-0.29219359159469604
1695804844888945200,9.291945068359375,0.8282800912857056,-0.34340450167655945,-0.49980372190475464
1695804844898944000,9.301944091796875,0.7070021629333496,-0.8034008741378784,-0.6756322383880615
1695804844908944000,9.31194384765625,0.5719398856163025,-1.4140956401824951,-0.8309202194213867
1695804844918943000,9.32194287109375,0.4846401512622833,-1.7810745239257812,-0.9558776021003723
1695804844928942800,9.33194287109375,0.4669959545135498,-1.680094599723816,-1.0359649658203125
1695804844938942000,9.34194189453125,0.5300902724266052,-1.2136576175689697,-1.0286375284194946
1695804844948941000,9.351941162109375,0.6605436205863953,-0.5846753120422363,-0.9296876788139343
1695804844958941000,9.36194091796875,0.7782279253005981,-0.003581563476473093,-0.7600997090339661
1695804844968940000,9.37193994140625,0.827960729598999,0.36926308274269104,-0.5265174508094788
1695804844978940000,9.38193994140625,0.8322089910507202,0.4659041166305542,-0.2438971996307373
1695804844988939000,9.39193896484375,0.8849353194236755,0.186061292886734,0.04982869699597359
1695804844998939100,9.401939208984375,1.0331588983535767,-0.39241084456443787,0.36859843134880066
1695804845008938000,9.41193798828125,1.1621570587158203,-0.8522040247917175,0.6969026923179626
1695804845018936800,9.421936767578124,1.2369135618209839,-0.9366222620010376,1.0353013277053833
1695804845028937200,9.431937255859374,1.309435486793518,-0.18109309673309326,1.390902042388916
1695804845038935800,9.441935791015625,1.4019625186920166,1.1228762865066528,1.6424070596694946
1695804845048936000,9.45193603515625,1.4477401971817017,1.8165769577026367,1.8595134019851685
1695804845058935000,9.46193505859375,1.4072092771530151,1.6091984510421753,2.1349289417266846
1695804845068934000,9.471933837890624,1.2772783041000366,0.9492529034614563,2.4664783477783203
1695804845078933500,9.48193359375,1.1345031261444092,0.12357792258262634,2.8377294540405273
1695804845088932600,9.4919326171875,1.0678263902664185,-0.6784125566482544,3.1451542377471924
1695804845098932500,9.501932373046875,1.0851728916168213,-1.2486965656280518,3.2677760124206543
1695804845108931300,9.511931396484375,1.0771102905273438,-1.4491163492202759,3.140152931213379
1695804845118931200,9.52193115234375,1.0180227756500244,-1.3496531248092651,2.8294525146484375
1695804845128930300,9.531930419921874,1.093134880065918,-0.9281222224235535,2.456925630569458
1695804845138929400,9.541929443359376,1.3186062574386597,-0.2598581314086914,2.0424909591674805
1695804845148929300,9.55192919921875,1.439893126487732,0.25740963220596313,1.5926737785339355
1695804845158928400,9.561928466796875,1.3684152364730835,0.5262312293052673,1.2391985654830933
1695804845168928500,9.571928466796875,1.2158076763153076,0.5299239158630371,1.1583532094955444
1695804845178927400,9.58192724609375,1.0627206563949585,0.28140464425086975,1.2626521587371826
1695804845188926500,9.591926513671876,1.0758802890777588,-0.3130047917366028,1.3446893692016602
1695804845198926300,9.60192626953125,1.1924055814743042,-1.239420771598816,1.2481426000595093
1695804845208925400,9.611925537109375,1.1844068765640259,-2.1791388988494873,1.0129235982894897
1695804845218925600,9.621925537109375,1.0858677625656128,-2.8835978507995605,0.8384775519371033
1695804845228924400,9.63192431640625,0.9731107354164124,-3.0108642578125,0.8214079737663269
1695804845238924500,9.641924560546874,1.0178041458129883,-2.438431978225708,0.9380621314048767
1695804845248923400,9.65192333984375,1.1977254152297974,-1.1907541751861572,0.9033929109573364
1695804845258922200,9.661922119140625,1.3634685277938843,0.18480184674263,0.4471723735332489
1695804845268922400,9.67192236328125,1.3905630111694336,1.1707905530929565,-0.4953680634498596
1695804845278921500,9.68192138671875,1.3488397598266602,1.5645122528076172,-1.7483611106872559
1695804845288921300,9.69192138671875,1.2793378829956055,1.504748821258545,-2.846660852432251
1695804845298920400,9.70192041015625,1.2365323305130005,1.3119971752166748,-3.4829118251800537
1695804845308919600,9.71191943359375,1.1943150758743286,1.0794837474822998,-3.6684765815734863
1695804845318919400,9.72191943359375,1.0343464612960815,0.7270375490188599,-3.4314565658569336
1695804845328918500,9.73191845703125,0.8488401174545288,0.3878518044948578,-2.708824396133423
1695804845338918400,9.74191845703125,0.8046182990074158,0.4092321991920471,-1.7037065029144287
1695804845348917500,9.75191748046875,0.8797993063926697,0.9153426289558411,-0.8946218490600586
1695804845358917400,9.76191748046875,0.9768800735473633,1.124191403388977,-0.5131346583366394
1695804845368916500,9.77191650390625,1.1525490283966064,1.0629369020462036,-0.4247232675552368
1695804845378915300,9.781915283203125,1.5343925952911377,1.093112587928772,-0.3897876441478729
1695804845388915200,9.791915283203124,2.0265636444091797,1.332430124282837,-0.3273005187511444
1695804845398914300,9.801914306640626,2.3043339252471924,1.6713181734085083,-0.22168166935443878
1695804845408914400,9.81191455078125,2.058656930923462,1.7780449390411377,0.011627636849880219
1695804845418913300,9.821913330078125,1.2672368288040161,1.0122138261795044,0.676712155342102
1695804845428912400,9.831912353515625,0.42880669236183167,-0.014947633258998394,1.7587577104568481
1695804845438912500,9.84191259765625,-0.026383977383375168,-0.3174382746219635,2.4030799865722656
1695804845448911400,9.851911376953124,0.2235928624868393,0.07451196014881134,1.725416660308838
1695804845458911500,9.861911376953126,1.137782096862793,0.714163064956665,-0.07646084576845169
1695804845468910300,9.871910400390625,1.639750599861145,1.259161353111267,-2.1220693588256836
1695804845478910500,9.881910400390625,1.2003709077835083,1.4334796667099,-3.3814268112182617
1695804845488909600,9.89190966796875,0.4029368460178375,1.32905113697052,-3.6919054985046387
1695804845498908400,9.901908447265624,-0.5095804333686829,1.0716677904129028,-3.340027093887329
1695804845508908500,9.911908447265626,-1.4075480699539185,0.7561567425727844,-2.2426247596740723
1695804845518907400,9.921907470703125,-1.9977080821990967,0.9027954936027527,-0.6869940757751465
1695804845528907300,9.9319072265625,-1.9452080726623535,1.2724924087524414,0.7653350830078125
1695804845538906400,9.94190625,-1.4730080366134644,1.3407777547836304,1.7010871171951294
1695804845548905500,9.951905517578124,-0.9396000504493713,1.1803874969482422,2.128310441970825
1695804845558905300,9.9619052734375,-0.5763379335403442,0.8377256989479065,2.095492124557495
1695804845568904400,9.971904541015626,-0.5566227436065674,-0.16517163813114166,1.8264071941375732
1695804845578904300,9.981904296875,-0.8500391840934753,-1.1381386518478394,1.2651976346969604
1695804845588903400,9.9919033203125,-1.2141096591949463,-1.8165111541748047,0.3198872208595276
1695804845598903300,10.0019033203125,-1.4605135917663574,-1.8044614791870117,-0.7609997987747192
1695804845608902400,10.01190234375,-1.4752565622329712,-0.6738651990890503,-1.5253368616104126
1695804845618901500,10.021901611328126,-1.1742339134216309,1.1134192943572998,-1.879611849784851
1695804845628901400,10.0319013671875,-0.7388032078742981,2.811460494995117,-1.9634829759597778
1695804845638900500,10.041900390625,-0.4797540009021759,3.3974759578704834,-1.9387582540512085
1695804845648900600,10.051900634765625,-0.6186994314193726,2.0584890842437744,-1.3447257280349731
1695804845658899200,10.061899169921874,-1.0192346572875977,-0.19528506696224213,0.013140540570020676
1695804845668898300,10.071898193359376,-1.317501425743103,-2.322558879852295,1.2699565887451172
1695804845678898400,10.0818984375,-1.3571689128875732,-3.525669574737549,1.7312685251235962
1695804845688897300,10.091897216796875,-1.0940145254135132,-3.29929780960083,1.8205147981643677
1695804845698897400,10.1018974609375,-0.6885488033294678,-2.04436993598938,1.7750040292739868
1695804845708896500,10.111896484375,-0.40925493836402893,-0.552452802658081,1.5299198627471924
1695804845718895400,10.121895263671876,-0.5114755630493164,0.5895508527755737,1.0256985425949097
1695804845728895500,10.1318955078125,-0.6536199450492859,1.1155197620391846,0.3308146893978119
1695804845738894300,10.141894287109375,-0.5342514514923096,1.3371741771697998,-0.57750004529953
1695804845748894500,10.15189453125,-0.2978036403656006,1.2293641567230225,-1.5076773166656494
1695804845758893600,10.1618935546875,-0.177281454205513,1.0843720436096191,-2.1454381942749023
1695804845768893400,10.1718935546875,-0.16967976093292236,1.1895126104354858,-2.3650360107421875
1695804845778892500,10.181892578125,-0.20376582443714142,1.422598958015442,-2.2292611598968506
1695804845788891400,10.191891357421875,-0.33708781003952026,1.4329485893249512,-1.8945430517196655
1695804845798891300,10.201891357421875,-0.6158369183540344,1.229001522064209,-1.3776226043701172
1695804845808890400,10.211890380859375,-0.8660604953765869,1.155416488647461,-0.717490017414093
1695804845818890200,10.22189013671875,-0.8127016425132751,1.1169108152389526,-0.1845204085111618
1695804845828889300,10.231889404296876,-0.580409824848175,1.0738611221313477,0.13534018397331238
1695804845838888400,10.241888427734375,-0.3416305482387543,1.0337626934051514,0.2397661954164505
1695804845848888300,10.251888427734375,-0.21686017513275146,0.6136218309402466,0.04053637012839317
1695804845858887400,10.261887451171875,-0.30846041440963745,0.44040560722351074,-0.255908340215683
1695804845868887600,10.271887451171875,-0.5857058167457581,0.6861294507980347,-0.4972153902053833
1695804845878886400,10.281886474609376,-0.794166088104248,0.6951757073402405,-1.0342040061950684
1695804845888886500,10.291886474609376,-0.6728368997573853,0.3663548529148102,-1.9655390977859497
1695804845898885400,10.301885498046875,-0.21813730895519257,0.31150731444358826,-2.662064552307129
1695804845908884500,10.311884521484375,0.16750983893871307,1.2499241828918457,-3.2854199409484863
1695804845918884600,10.321884521484375,-0.19780023396015167,6.339253902435303,-4.3682050704956055
1695804845928883200,10.33188330078125,-0.04922108352184296,7.114400863647461,-4.25453519821167
1695804845938883300,10.34188330078125,0.8919882774353027,2.8240482807159424,-1.879707932472229
1695804845948882400,10.35188232421875,0.7991173267364502,-0.5459394454956055,1.9002946615219116
1695804845958882300,10.36188232421875,0.3204785883426666,-1.8841367959976196,5.295369625091553
1695804845968881400,10.37188134765625,0.5843048691749573,-3.79017972946167,5.459049701690674
1695804845978880500,10.381880615234374,0.8138682842254639,-4.284062385559082,3.73586368560791
1695804845988880400,10.39188037109375,0.941425085067749,-2.645580530166626,2.219867706298828
1695804845998879500,10.40187939453125,1.1250934600830078,-1.2053391933441162,0.6919435262680054
1695804846008879400,10.41187939453125,1.0519123077392578,-0.15616406500339508,-0.8554900288581848
1695804846018878500,10.42187841796875,0.780607283115387,0.7822891473770142,-1.8717097043991089
1695804846028877600,10.431877685546874,0.48915597796440125,1.302377700805664,-2.2066054344177246
1695804846038877400,10.44187744140625,0.315868079662323,1.4377989768981934,-1.8586153984069824
1695804846048876500,10.45187646484375,0.2836564779281616,1.1593443155288696,-1.113353967666626
1695804846058876400,10.46187646484375,0.3792661130428314,0.693565845489502,-0.29670947790145874
1695804846068875300,10.471875244140625,0.46517226099967957,0.16457387804985046,0.35475587844848633
1695804846078875600,10.481875732421875,0.47024983167648315,-0.34301555156707764,0.7005713582038879
1695804846088874500,10.49187451171875,0.3877292573451996,-0.495638370513916,0.8253475427627563
1695804846098873600,10.50187353515625,0.32278114557266235,-0.19274187088012695,0.7425029873847961
1695804846108873700,10.511873779296875,0.2598353624343872,0.013855114579200745,0.4978349804878235
1695804846118872600,10.52187255859375,0.049467213451862335,0.06076030433177948,0.26856744289398193
1695804846128872700,10.531872802734375,-0.23920220136642456,0.020176120102405548,0.1811111718416214
1695804846138871600,10.54187158203125,-0.4888937771320343,-0.07099080830812454,0.16579507291316986
1695804846148870700,10.55187060546875,-0.7122335433959961,-0.10191842168569565,0.1479140818119049
1695804846158870800,10.561870849609376,-0.8568298816680908,0.06569108366966248,0.11340110749006271
1695804846168869600,10.57186962890625,-0.8280950784683228,0.2744784951210022,0.03459903970360756
1695804846178869800,10.581869873046875,-0.6429880857467651,0.31253212690353394,-0.049785349518060684
1695804846188868600,10.59186865234375,-0.5060397982597351,0.27909812331199646,-0.020679602399468422
1695804846198867500,10.601867431640626,-0.4997754693031311,0.059600383043289185,0.2226227968931198
1695804846208867600,10.61186767578125,-0.5814709067344666,-0.13655439019203186,0.6415987610816956
1695804846218866700,10.62186669921875,-0.6481742858886719,-0.24405553936958313,0.9539604187011719
1695804846228866600,10.631866455078125,-0.6687672138214111,-0.4118601679801941,0.9969334602355957
1695804846238865700,10.64186572265625,-0.7192205786705017,-0.42228537797927856,0.7911531329154968
1695804846248865500,10.651865478515624,-0.6808788776397705,-0.16827650368213654,0.42561763525009155
1695804846258864600,10.66186474609375,-0.37668275833129883,0.20303285121917725,0.02794031985104084
1695804846268863700,10.67186376953125,0.016372762620449066,0.4945453703403473,-0.29981276392936707
1695804846278863600,10.681863525390625,0.22587832808494568,0.53033047914505,-0.4180041253566742
1695804846288862700,10.69186279296875,0.2586921155452728,0.3119189441204071,-0.31751513481140137
1695804846298862600,10.701862548828124,0.2344653457403183,-0.12353236973285675,-0.07856380194425583
1695804846308861700,10.71186181640625,0.1734113097190857,-0.456432580947876,0.16168129444122314
1695804846318860500,10.721860595703125,0.1273740530014038,-0.5531564354896545,0.24330611526966095
1695804846328860400,10.7318603515625,0.10212332755327225,-0.46964991092681885,0.1317325234413147
1695804846338859500,10.741859619140625,0.011626188643276691,-0.2039090394973755,-0.0925796627998352
1695804846348859600,10.751859619140625,-0.10460604727268219,0.03736378997564316,-0.371860533952713
1695804846358858500,10.7618583984375,-0.1702742874622345,0.1806037724018097,-0.5890210866928101
1695804846368858600,10.771858642578126,-0.1625150889158249,0.29984772205352783,-0.6810446381568909
1695804846378857700,10.781857666015625,-0.1501854509115219,0.27932804822921753,-0.6919193863868713
1695804846388856600,10.791856689453125,-0.18239718675613403,0.18355119228363037,-0.6264679431915283
1695804846398856700,10.801856689453125,-0.17398452758789062,0.08672799170017242,-0.5183880925178528
1695804846408855600,10.81185546875,-0.14083479344844818,0.009094198234379292,-0.4454991817474365
1695804846418855700,10.821855712890626,-0.11849140375852585,0.05901222676038742,-0.46865135431289673
1695804846428854800,10.831854736328125,-0.08761007338762283,0.24044692516326904,-0.5418860912322998
1695804846438853400,10.841853271484375,-0.014103631488978863,0.4757761061191559,-0.5845499634742737
1695804846448853800,10.851853759765625,0.05695923790335655,0.629743218421936,-0.6136773824691772
1695804846458852600,10.8618525390625,0.06774397194385529,0.6498429775238037,-0.5921715497970581
1695804846468852500,10.8718525390625,0.02602171152830124,0.5310558676719666,-0.5066846609115601
1695804846478851600,10.8818515625,-0.008603377267718315,0.28950372338294983,-0.3770845830440521
1695804846488851500,10.8918515625,-0.05449286848306656,0.03847439959645271,-0.2502356469631195
1695804846498850600,10.9018505859375,-0.11280916631221771,-0.10768866539001465,-0.19290977716445923
1695804846508849700,10.911849609375,-0.16045287251472473,-0.1188831776380539,-0.19888801872730255
1695804846518849500,10.921849609375,-0.2049577534198761,-0.06694994866847992,-0.21154256165027618
1695804846528848600,10.9318486328125,-0.2401435822248459,0.004447051323950291,-0.19125419855117798
1695804846538848500,10.9418486328125,-0.22201119363307953,0.08560315519571304,-0.1563984751701355
1695804846548847600,10.95184765625,-0.16005535423755646,0.15168718993663788,-0.12680946290493011
1695804846558846700,10.9618466796875,-0.11830845475196838,0.2507919371128082,-0.12445336580276489
1695804846568846600,10.9718466796875,-0.06815749406814575,0.2879456877708435,-0.13105911016464233
1695804846578845400,10.981845458984376,-0.024425460025668144,0.2090311497449875,-0.11705061793327332
1695804846588845800,10.991845703125,0.0007398189045488834,0.10790197551250458,-0.10641994327306747
1695804846598844400,11.001844482421875,0.03717213124036789,0.08274282515048981,-0.12576647102832794
1695804846608844500,11.011844482421875,0.10364830493927002,0.09338568150997162,-0.17685824632644653
1695804846618843600,11.02184375,0.17348279058933258,0.09640677273273468,-0.20695702731609344
1695804846628842500,11.031842529296876,0.22564169764518738,0.10529384762048721,-0.16757537424564362
1695804846638842600,11.041842529296876,0.24314665794372559,0.09734244644641876,-0.0875961184501648
1695804846648841700,11.051841796875,0.2417660355567932,0.05906111001968384,-0.015799254179000854
1695804846658841600,11.061841552734375,0.20946188271045685,0.03760562092065811,0.04258069768548012
1695804846668840700,11.0718408203125,0.16225679218769073,0.030948234722018242,0.09665527939796448
1695804846678839800,11.08183984375,0.12966743111610413,0.029887763783335686,0.14170370995998383
1695804846688839700,11.091839599609376,0.09899582713842392,0.030464520677924156,0.17131590843200684
1695804846698838800,11.1018388671875,0.08513300865888596,0.0217120423913002,0.1927037537097931
1695804846708838700,11.111838623046875,0.0820537731051445,-0.009277592413127422,0.2051611840724945
1695804846718837500,11.12183740234375,0.09444652497768402,-0.05755111575126648,0.22011244297027588
1695804846728837600,11.131837646484374,0.11921829730272293,-0.09752948582172394,0.20550182461738586
1695804846738836500,11.14183642578125,0.13063473999500275,-0.10135617852210999,0.13683567941188812
1695804846748835600,11.151835693359375,0.11026517301797867,-0.0656050443649292,0.049615539610385895
1695804846758835500,11.16183544921875,0.06458929181098938,-0.015027623623609543,-0.010428356938064098
1695804846768834600,11.17183447265625,0.01373971812427044,0.04128989204764366,-0.03508072718977928
1695804846778834700,11.181834716796875,-0.0148088363930583,0.09181138873100281,-0.036844804883003235
1695804846788833500,11.19183349609375,-0.006348256021738052,0.127665713429451,-0.017862442880868912
1695804846798832600,11.20183251953125,0.013526116497814655,0.1278020739555359,0.020730754360556602
1695804846808832800,11.211832763671875,0.007586871739476919,0.08436816185712814,0.06501006335020065
1695804846818831600,11.22183154296875,-0.020708415657281876,0.006234745495021343,0.09339429438114166
1695804846828831700,11.231831787109375,-0.0484502911567688,-0.10754311829805374,0.0922095850110054
1695804846838830600,11.24183056640625,-0.07775438576936722,-0.1792825609445572,0.07101189345121384
1695804846848830700,11.251830810546876,-0.09873785078525543,-0.14861710369586945,0.021501345559954643
1695804846858829600,11.26182958984375,-0.11635386198759079,-0.07676368951797485,-0.04391840845346451
1695804846868828400,11.271828369140625,-0.11470434069633484,0.025452062487602234,-0.09814804792404175
1695804846878828500,11.28182861328125,-0.0955149307847023,0.09859684109687805,-0.115119569003582
1695804846888827600,11.29182763671875,-0.07523815333843231,0.11848001182079315,-0.1042432188987732
1695804846898827500,11.30182763671875,-0.05569135397672653,0.13187864422798157,-0.08273020386695862
1695804846908826600,11.31182666015625,-0.030603721737861633,0.131927952170372,-0.06687919795513153
1695804846918825700,11.32182568359375,-0.020626189187169075,0.10374584794044495,-0.0458010733127594
1695804846928825600,11.33182568359375,-0.01024649664759636,0.04807876795530319,-0.016091670840978622
1695804846938824700,11.34182470703125,0.0060003832913935184,-0.0219115000218153,0.014294466003775597
1695804846948824600,11.351824462890624,0.004815542604774237,-0.07283007353544235,0.040226731449365616
1695804846958823700,11.36182373046875,-0.018230387941002846,-0.0757499635219574,0.05054834485054016
1695804846968823600,11.371823486328125,-0.020339684560894966,-0.03277997300028801,0.05328521504998207
1695804846978822700,11.38182275390625,0.00821845792233944,0.0026925341226160526,0.033989012241363525
1695804846988821500,11.391821533203125,0.034972064197063446,0.017876194790005684,0.026458635926246643
1695804846998821400,11.4018212890625,0.059147708117961884,0.013439102098345757,0.03986126184463501
1695804847008820500,11.411820556640626,0.060525719076395035,-0.030005816370248795,0.05863046273589134
1695804847018820600,11.421820556640625,0.04731404408812523,-0.07654642313718796,0.08194909989833832
1695804847028819500,11.4318193359375,0.01844107359647751,-0.11710885912179947,0.09990524500608444
1695804847038818600,11.441818603515625,-0.015423417091369629,-0.12212172150611877,0.10288584977388382
1695804847048818700,11.451818603515624,-0.028107736259698868,-0.09333435446023941,0.092527836561203
1695804847058817500,11.461817626953126,-0.02997860684990883,-0.07072065025568008,0.053412921726703644
1695804847068817700,11.471817626953126,-0.038743238896131516,-0.06663747131824493,0.025775475427508354
1695804847078816800,11.481816650390625,-0.03377857431769371,-0.06676556169986725,0.008009794168174267
1695804847088815600,11.491815673828125,-0.015495004132390022,-0.06987110525369644,-0.016999725252389908
1695804847098815700,11.501815673828125,0.004501073621213436,-0.0471695214509964,-0.046700626611709595
1695804847108814600,11.511814697265624,0.014190228655934334,-0.012012504041194916,-0.07178978621959686
1695804847118814700,11.521814697265626,0.01826167106628418,0.025493061169981956,-0.06670687347650528
1695804847128813600,11.5318134765625,0.023339619860053062,0.05934995785355568,-0.04679158702492714
1695804847138813700,11.541813720703125,0.02555270679295063,0.06947342306375504,-0.03284301236271858
1695804847148812500,11.5518125,0.04948428273200989,0.08186667412519455,-0.009943168610334396
1695804847158811600,11.561811767578124,0.0703008845448494,0.08993365615606308,0.008433707989752293
1695804847168811500,11.5718115234375,0.07401439547538757,0.05895869433879852,0.017810964956879616
1695804847178810600,11.581810546875,0.07650471478700638,0.02927136979997158,0.01836916245520115
1695804847188810500,11.591810546875,0.06692653149366379,0.00749093247577548,0.015194530598819256
1695804847198809600,11.6018095703125,0.05244612693786621,-0.023137018084526062,0.018569286912679672
1695804847208808700,11.61180859375,0.04444657638669014,-0.025478538125753403,0.03836571425199509
1695804847218808600,11.62180859375,0.04370754957199097,0.00449187820777297,0.06199407950043678
1695804847228807700,11.6318076171875,0.048263389617204666,0.038796305656433105,0.07587090134620667
1695804847238807600,11.6418076171875,0.04559223726391792,0.06566467136144638,0.06529548764228821
1695804847248806700,11.651806640625,0.03751230612397194,0.05899837613105774,0.04832705855369568
1695804847258806800,11.661806884765625,0.014493542723357677,0.02120199427008629,0.04232562705874443
1695804847268805400,11.671805419921874,-0.021815195679664612,-0.006837364286184311,0.05539162829518318
1695804847278804500,11.681804443359376,-0.04665929451584816,-0.035445306450128555,0.06940066069364548
1695804847288804600,11.6918046875,-0.07420293241739273,-0.05355866625905037,0.07149619609117508
1695804847298803500,11.701803466796875,-0.11133858561515808,-0.03634639084339142,0.0676676332950592
1695804847308803600,11.711803466796875,-0.1375000774860382,-0.010327932424843311,0.0381510965526104
1695804847318802700,11.721802734375,-0.13136975467205048,0.044909488409757614,-0.0013355903793126345
1695804847328802600,11.731802490234376,-0.10653979331254959,0.12386920303106308,-0.048263270407915115
1695804847338801700,11.7418017578125,-0.08106426149606705,0.1502840369939804,-0.0709531381726265
1695804847348800800,11.75180078125,-0.07155007869005203,0.12902997434139252,-0.07209567725658417
1695804847358800600,11.761800537109375,-0.06622162461280823,0.07142393290996552,-0.054027993232011795
1695804847368799700,11.7717998046875,-0.06465478241443634,-0.005628804676234722,-0.01908170059323311
1695804847378799600,11.781799560546874,-0.05488257482647896,-0.03189396485686302,0.004924034234136343
1695804847388798700,11.791798828125,-0.027096806094050407,-0.01680772379040718,0.01336764171719551
1695804847398797600,11.801797607421875,0.002604097593575716,0.05316736549139023,0.01762443780899048
1695804847408797400,11.81179736328125,0.01610349491238594,0.12529468536376953,0.0271946731954813
1695804847418796500,11.821796630859374,-0.0016824263148009777,0.12067435681819916,0.0289923083037138
1695804847428796400,11.83179638671875,-0.04365311935544014,0.04547297954559326,0.03640595078468323
1695804847438795500,11.84179541015625,-0.08038556575775146,-0.055170007050037384,0.05693626031279564
1695804847448794600,11.851794677734375,-0.1090642437338829,-0.14122486114501953,0.05053924769163132
1695804847458794500,11.86179443359375,-0.12962119281291962,-0.18635879456996918,-0.0011436515487730503
1695804847468793600,11.871793701171875,-0.1407637894153595,-0.15780267119407654,-0.06808587163686752
1695804847478793700,11.881793701171874,-0.14611807465553284,-0.02993578463792801,-0.12456246465444565
1695804847488792600,11.89179248046875,-0.11633037030696869,0.11859428137540817,-0.15493832528591156
1695804847498792700,11.901792724609376,-0.0573570691049099,0.22620756924152374,-0.13614866137504578
1695804847508791800,11.911791748046875,-0.022302456200122833,0.2965013384819031,-0.06577856838703156
1695804847518790700,11.921790771484375,-0.02010721154510975,0.2664496898651123,0.020789343863725662
1695804847528790800,11.931790771484375,-0.021180277690291405,0.13595671951770782,0.09458667784929276
1695804847538789600,11.94178955078125,-0.023163534700870514,-0.05659222602844238,0.15764421224594116
1695804847548789500,11.95178955078125,-0.0502304770052433,-0.20993328094482422,0.20445436239242554
1695804847558788600,11.96178857421875,-0.0907512679696083,-0.2461160570383072,0.20974473655223846
1695804847568787500,11.971787353515625,-0.09895019233226776,-0.1534787267446518,0.1524159014225006
1695804847578787600,11.98178759765625,-0.06605695933103561,-0.014256131835281849,0.04690972715616226
1695804847588786700,11.99178662109375,-0.04390102997422218,0.12114086002111435,-0.03732435032725334
1695804847598786600,12.00178662109375,-0.06306061148643494,0.20260721445083618,-0.07389701157808304
1695804847608785700,12.01178564453125,-0.10129908472299576,0.21617752313613892,-0.08570027351379395
1695804847618785500,12.02178564453125,-0.13914552330970764,0.17179140448570251,-0.09667116403579712
1695804847628784600,12.03178466796875,-0.17324765026569366,0.07293476164340973,-0.09836312383413315
1695804847638783700,12.04178369140625,-0.1964975744485855,-0.02771488018333912,-0.08108639717102051
1695804847648783600,12.05178369140625,-0.20085962116718292,-0.07791433483362198,-0.056923624128103256
1695804847658782700,12.06178271484375,-0.18453870713710785,-0.054900094866752625,-0.06020597368478775
1695804847668782600,12.071782470703125,-0.17329125106334686,0.013947457075119019,-0.08475511521100998
1695804847678781400,12.081781494140625,-0.17852115631103516,0.11203967034816742,-0.10540846735239029
1695804847688780500,12.091780517578124,-0.1940772831439972,0.19883501529693604,-0.1166224330663681
1695804847698780400,12.101780517578124,-0.19754205644130707,0.2435271143913269,-0.12083368748426437
1695804847708779500,12.111779541015625,-0.1989610642194748,0.2919338643550873,-0.12528374791145325
1695804847718779600,12.121779541015625,-0.20645786821842194,0.35001152753829956,-0.14266061782836914
1695804847728778500,12.131778564453125,-0.21499933302402496,0.3894311189651489,-0.174457386136055
1695804847738777600,12.141777587890624,-0.2170797884464264,0.41760683059692383,-0.18677663803100586
1695804847748777700,12.15177783203125,-0.2234683632850647,0.4275723397731781,-0.16634520888328552
1695804847758776600,12.161776611328126,-0.23142509162425995,0.46789366006851196,-0.12418550252914429
1695804847768776700,12.171776611328125,-0.21456630527973175,0.577061116695404,-0.08714576810598373
1695804847778775800,12.18177587890625,-0.1923784464597702,0.7138224244117737,-0.05234038084745407
1695804847788775700,12.191775634765625,-0.1975594460964203,0.7456030249595642,-0.01010976079851389
1695804847798774800,12.20177490234375,-0.224196657538414,0.6091903448104858,0.04492845758795738
1695804847808773600,12.211773681640626,-0.25280478596687317,0.3777138590812683,0.12411655485630035
1695804847818773500,12.2217734375,-0.26418420672416687,0.16740188002586365,0.18266907334327698
1695804847828772600,12.231772705078125,-0.24557706713676453,0.050882596522569656,0.1497005671262741
1695804847838772500,12.2417724609375,-0.203363835811615,0.03748849406838417,0.031080449000000954
1695804847848771600,12.251771484375,-0.14786982536315918,0.1420530378818512,-0.1070525124669075
1695804847858770700,12.261770751953126,-0.07286589592695236,0.3037300705909729,-0.2165238857269287
1695804847868770600,12.2717705078125,0.00690939836204052,0.44277223944664,-0.2875818610191345
1695804847878769700,12.281769775390625,0.0629420354962349,0.4873626232147217,-0.30201777815818787
1695804847888769500,12.29176953125,0.09462668001651764,0.37658095359802246,-0.23790638148784637
1695804847898768600,12.3017685546875,0.10344120860099792,0.1851654350757599,-0.11339427530765533
1695804847908768800,12.311768798828124,0.0982283353805542,0.006202073767781258,0.024827511981129646
1695804847918767600,12.321767578125,0.0968160629272461,-0.07867845892906189,0.11438562721014023
1695804847928766700,12.3317666015625,0.10221543163061142,-0.06143374741077423,0.13089795410633087
1695804847938766600,12.3417666015625,0.12037818878889084,-0.007361456751823425,0.10124337673187256
1695804847948765400,12.351765380859375,0.1261741667985916,0.05723949521780014,0.06990675628185272
1695804847958765600,12.361765625,0.12749269604682922,0.10422031581401825,0.05316878855228424
1695804847968764400,12.371764404296876,0.12874284386634827,0.1145610362291336,0.039269302040338516
